time,timestamp,recordtime,lat,long,alt,speed,course,verticalAccuracy,horizontalAccuracy,locTimeStamp,accelerationX,accelerationY,accelerationZ,HeadingX,HeadingY,HeadingZ,TrueHeading,MagneticHeading,HeadingAccuracy,RotationX,RotationY,RotationZ,motionYaw,motionRoll,motionPitch,motionRotationRateX,motionRotationRateY,motionRotationRateZ,motionUserAccelerationX,motionUserAccelerationY,motionUserAccelerationZ,DeviceOrientation,Event
2013-11-05 23:45:14.708,1,0.1,40.6895,-73.95139,13.88397,8.67,171.4341,12,10,1383713114,0.2021027,-0.05181885,-1.233353,18.33833,-45.56351,-16.57735,188.6053,201.6666,15,-0.0392763,0.5422217,-0.1607548,-0.04149062,0.1045244,0.3184647,-0.3340953,0.5533186,-0.2901002,0.01663467,0.2562546,0.006301543,5,0
2013-11-05 23:45:14.808,2,0.2,40.6895,-73.95139,13.88397,8.67,171.4341,12,10,1383713114,0.2288361,-0.343277,-1.080017,18.61773,-46.32922,-15.69675,188.8893,201.9506,15,0.02581242,0.3441726,-0.02730486,-0.04874376,0.1065529,0.3424002,-0.3361767,0.3663934,-0.1776044,-0.05542381,-0.1639917,0.08051498,5,0
2013-11-05 23:45:14.908,3,0.3,40.6895,-73.95139,13.88397,8.67,171.4341,12,10,1383713114,0.101059,-0.1951904,-0.8648987,18.23356,-47.06018,-14.51133,188.2381,201.2993,15,-0.7988977,0.4867883,-0.4017943,-0.05249099,0.1051189,0.3443611,-0.714588,0.1723914,-0.3398565,-0.0315657,0.191645,0.255462,5,0
2013-11-05 23:45:15.008,4,0.4,40.6895,-73.95139,13.88397,8.67,171.4341,12,10,1383713114,0.05718994,-0.190094,-0.6747131,18.26849,-46.32925,-14.88389,188.4762,201.5375,15,0.5365436,-0.6514614,0.2316159,-0.04907032,0.0917493,0.3584698,0.8429874,-0.8263079,0.3794086,0.1227604,0.2270471,-0.1922597,5,0
2013-11-05 23:45:15.109,5,0.5,40.6895,-73.95139,13.88397,8.67,171.4341,12,10,1383713114,0.3404083,-0.03697205,-1.430664,18.12878,-46.19,-14.34198,188.7758,201.837,15,1.582324,-0.6245291,0.5526342,-0.06936534,0.09238522,0.3205927,1.168971,-0.3850665,0.3819044,0.2619949,0.2234848,-0.541769,5,0
2013-11-05 23:45:15.208,6,0.6,40.6895,-73.95139,13.88397,8.67,171.4341,12,10,1383713114,0.06822205,0.01954651,-0.9866791,18.86218,-46.64243,-14.37587,190.8036,203.8649,15,-0.671605,0.5446596,-0.1823536,-0.06277645,0.0377201,0.340148,-0.977614,0.2968423,-0.2673139,-0.1020941,0.1332482,0.2643614,5,0
2013-11-05 23:45:15.308,7,0.7,40.6895,-73.95139,13.88397,8.67,171.4341,12,10,1383713114,0.08625793,-0.1704407,-0.769043,18.86218,-47.75629,-14.64681,190.0254,203.0866,15,-0.17686,-0.09053177,-0.1284261,-0.0592472,0.03838392,0.3715541,0.2045059,-0.3235163,0.02428689,0.1062118,0.205578,0.01590152,5,0
2013-11-05 23:45:15.408,8,0.8,40.6895,-73.95139,13.88397,8.67,171.4341,12,10,1383713114,0.1198425,-0.1725769,-1.314209,17.50015,-47.99994,-13.52913,188.8258,201.887,15,0.7281737,-0.2089316,0.1972444,-0.06629768,0.05166792,0.3603534,0.592869,-0.1480085,0.1927826,0.08445408,0.17867,-0.4064494,5,0
2013-11-05 23:45:15.509,9,0.9,40.68943,-73.95138,13.08902,8.18,171.4341,12,10,1383713115,0.1145477,-0.1512451,-1.205704,16.38257,-48.55685,-12.98724,187.7112,200.7724,15,0.4020505,-0.09329293,0.2215356,-0.06732441,0.04150004,0.3671045,0.1478141,-0.1460378,0.159396,0.05777278,0.1706972,-0.07532193,5,0
2013-11-05 23:45:15.608,10,1,40.68943,-73.95138,13.08902,8.18,171.4341,12,10,1383713115,0.1689758,-0.1743622,-0.9964294,16.97627,-48.45242,-13.15658,188.5216,201.5829,15,-0.3917875,0.453861,-0.1978747,-0.08113129,0.0473266,0.360839,-0.6090626,0.3475161,-0.3232907,0.05940593,0.1670547,0.07789442,5,0
2013-11-05 23:45:15.708,11,1.1,40.68943,-73.95138,13.08902,8.18,171.4341,12,10,1383713115,0.1221313,-0.1929779,-1.11937,19.17649,-49.11374,-14.47748,188.8398,201.901,15,0.01651186,0.06884325,-0.04005687,-0.08324387,0.06140036,0.3527647,-0.120737,0.008570488,-0.07388635,0.01388897,0.1392253,-0.1974568,5,0
2013-11-05 23:45:15.808,12,1.2,40.68943,-73.95138,13.08902,8.18,171.4341,12,10,1383713115,0.07009888,-0.0905304,-1.061096,18.93202,-48.66122,-15.79836,188.8837,201.9449,15,-0.03555906,0.2322375,0.01552197,-0.08359694,0.06381734,0.3192356,-0.1954316,0.1486567,-0.01072734,-0.06664015,0.1888256,-0.02686819,5,0
2013-11-05 23:45:15.908,13,1.3,40.68943,-73.95138,13.08902,8.18,171.4341,12,10,1383713115,0.0004425049,-0.1304474,-0.6790466,19.17648,-48.20871,-16.03545,189.2361,202.2973,15,-0.3330475,0.3550399,-0.1890408,-0.07719904,0.04752541,0.3091928,-0.3500078,0.1604131,-0.1557323,-0.03413104,0.165206,0.2858545,5,0
2013-11-05 23:45:16.008,14,1.4,40.68943,-73.95138,13.08902,8.18,171.4341,12,10,1383713115,0.005126953,-0.1310883,-0.7948608,18.12874,-45.84189,-15.08712,189.1586,202.2199,15,-0.2331534,0.2388805,-0.17531,-0.07599449,0.05109447,0.2988379,-0.03162623,0.04437433,-0.04948053,-0.03104746,0.1724463,0.09647614,5,0
2013-11-05 23:45:16.108,15,1.5,40.68943,-73.95138,13.08902,8.18,171.4341,12,10,1383713115,0.09777832,-0.2833557,-1.134521,17.22072,-46.46844,-13.12272,187.4723,200.5335,15,0.4492835,-0.1778542,0.1371243,-0.08445045,0.07270867,0.2907978,0.3874519,-0.2306781,0.1265879,0.0557868,0.01680394,-0.284567,5,0
2013-11-05 23:45:16.208,16,1.6,40.68943,-73.95138,13.08902,8.18,171.4341,12,10,1383713115,0.05723572,-0.1470947,-0.9267578,17.74458,-46.99054,-13.563,188.1829,201.2442,15,-0.6779223,0.3948064,-0.263895,-0.08531072,0.06646062,0.2909374,-0.7086707,0.2544394,-0.2481414,-0.02202532,0.1175388,0.2814678,5,0
2013-11-05 23:45:16.308,17,1.7,40.68943,-73.95138,13.08902,8.18,171.4341,12,10,1383713115,0.1108704,-0.05218506,-1.081696,18.58276,-46.92087,-14.4436,188.1576,201.2188,15,0.3993474,-0.272671,0.1574823,-0.08839794,0.08928192,0.2745828,0.3669814,-0.2993858,0.1865468,0.08469383,0.2208982,-0.309316,5,0
2013-11-05 23:45:16.409,18,1.8,40.68943,-73.95138,13.08902,8.18,171.4341,12,10,1383713115,0.1727448,-0.1017761,-1.079773,17.9192,-45.63303,-14.07104,188.3299,201.3912,15,-0.3098428,0.3392513,-0.1393382,-0.09016648,0.08349944,0.267616,-0.402742,0.2691648,-0.1584217,0.08390351,0.1311933,0.1118924,5,0
2013-11-05 23:45:16.508,19,1.9,40.68937,-73.95137,16.78375,6.48,171.4341,12,10,1383713116,0.1915436,-0.110321,-1.060257,18.09383,-45.25015,-15.59515,188.1661,201.2274,15,0.2066475,0.02202381,0.0390462,-0.09348121,0.09144393,0.2629092,0.2109357,-0.03958278,0.02458736,0.1042041,0.1343111,-0.2218835,5,0
2013-11-05 23:45:16.608,20,2,40.68937,-73.95137,16.78375,6.48,171.4341,12,10,1383713116,-0.05496216,-0.1660614,-0.7313995,19.63049,-46.57285,-15.8661,189.5409,202.6021,15,-0.3533392,0.2640322,-0.141441,-0.08684651,0.06892564,0.2636047,-0.3244104,0.06811452,-0.1070063,-0.0978031,0.08035615,0.2406914,5,0
2013-11-05 23:45:16.708,21,2.1,40.68937,-73.95137,16.78375,6.48,171.4341,12,10,1383713116,0.06427002,-0.1075439,-0.964798,20.25912,-45.8071,-14.85001,190.5342,203.5954,15,0.1145362,0.1429271,-0.003317233,-0.08894411,0.07181004,0.2314139,0.07869862,0.03329907,-0.01249263,-0.02065668,0.2046805,-0.004781893,5,0
2013-11-05 23:45:16.808,22,2.2,40.68937,-73.95137,16.78375,6.48,171.4341,12,10,1383713116,0.1109314,-0.3056641,-1.010025,20.04958,-46.64249,-14.44357,190.1785,203.2397,15,0.01095518,0.2657387,-0.1401291,-0.09147029,0.0686015,0.235886,0.02997232,0.08324737,-0.1368203,0.006653762,-0.04270846,-0.05120433,5,0
2013-11-05 23:45:16.908,23,2.3,40.68937,-73.95137,16.78375,6.48,171.4341,12,10,1383713116,0.1413116,-0.3450928,-0.7723694,20.43375,-46.32922,-14.00327,190.7677,203.829,15,-0.1797666,0.1143876,-0.1278381,-0.09655071,0.06524266,0.2600621,-0.07238805,-0.07307278,-0.1011733,0.0748133,-0.06382807,0.1443259,5,0
2013-11-05 23:45:17.008,24,2.4,40.68937,-73.95137,16.78375,6.48,171.4341,12,10,1383713116,-0.03004456,-0.2777863,-1.001404,20.64329,-46.74692,-13.39364,190.7882,203.8494,15,-0.1962278,0.2373486,-0.01132829,-0.09709229,0.0664253,0.2454517,-0.07045022,-0.03133834,0.0602949,-0.01191203,-0.0190599,-0.07349343,5,0
2013-11-05 23:45:17.109,25,2.5,40.68937,-73.95137,16.78375,6.48,171.4341,12,10,1383713116,0.100296,-0.1858521,-1.059937,20.6782,-46.50327,-13.42751,190.7563,203.8175,15,0.5847585,-0.3196342,0.2117381,-0.09035328,0.0665349,0.2373637,0.594816,-0.5192409,0.2424828,0.06968622,0.0271332,-0.3271101,5,0
2013-11-05 23:45:17.208,26,2.6,40.68937,-73.95137,16.78375,6.48,171.4341,12,10,1383713116,0.1400604,-0.3356323,-1.196823,20.53851,-46.7121,-13.96942,190.866,203.9272,15,-0.03482749,0.2719897,0.05641454,-0.09050253,0.070131,0.2255749,-0.1396386,0.2995468,0.0532262,0.1139375,-0.1107754,-0.1209309,5,0
2013-11-05 23:45:17.308,27,2.7,40.68937,-73.95137,16.78375,6.48,171.4341,12,10,1383713116,0.1280975,-0.1385956,-0.8853455,20.71311,-45.70273,-16.1032,190.9321,203.9933,15,0.04699867,-0.267931,0.2045939,-0.08004004,0.06464019,0.2183868,-0.02903896,-0.2823742,0.2039384,0.08572751,0.09942178,0.04836709,5,0
2013-11-05 23:45:17.408,28,2.8,40.68937,-73.95137,16.78375,6.48,171.4341,12,10,1383713116,0.07073975,-0.2915649,-1.210678,20.64326,-46.39886,-16.50964,191.0641,204.1253,15,-0.177244,-0.251621,0.1704524,-0.06645447,0.03049395,0.2203394,-0.1589747,-0.4885897,0.1453566,0.04092661,-0.08783564,-0.01658896,5,0
2013-11-05 23:45:17.509,29,2.9,40.68933,-73.95136,15.71451,5.8,171.4341,12,10,1383713117,0.05508423,-0.2596893,-0.9716492,19.90985,-45.73752,-16.47577,191.2959,204.3571,15,0.0003118562,0.5504515,-0.01421729,-0.04943645,0.05310186,0.2274639,0.06179646,0.08976387,-0.0722914,0.02923816,0.017164,-0.05473498,5,0
2013-11-05 23:45:17.608,30,3,40.68933,-73.95136,15.71451,5.8,171.4341,12,10,1383713117,0.06410217,-0.1793365,-0.909668,19.4209,-45.31979,-17.76281,189.6791,202.7403,15,-0.1811711,0.04029309,-0.3327124,-0.05650215,0.1038006,0.2094356,-0.1935949,0.2706285,-0.2560424,-0.02336252,0.0001136431,0.02024687,5,0
2013-11-05 23:45:17.708,31,3.1,40.68933,-73.95136,15.71451,5.8,171.4341,12,10,1383713117,0.2153168,-0.225235,-1.045654,20.81785,-46.0159,-18.91438,190.3774,203.4387,15,0.259488,0.4815616,-0.08692797,-0.09295297,0.1246717,0.1800914,0.1620691,0.2927272,-0.1477959,0.1627267,-0.1391178,-0.2285663,5,0
2013-11-05 23:45:17.808,32,3.2,40.68933,-73.95136,15.71451,5.8,171.4341,12,10,1383713117,-0.01449585,-0.309494,-0.9855042,21.30679,-47.54739,-19.59174,189.6498,202.711,15,-0.235082,-0.3064223,-0.1275393,-0.1026073,0.1452086,0.1850416,-0.2044144,-0.3719831,-0.171814,-0.1130386,-0.1338837,0.07379556,5,0
2013-11-05 23:45:17.909,33,3.3,40.68933,-73.95136,15.71451,5.8,171.4341,12,10,1383713117,0.1231232,-0.2316895,-0.8905029,21.48141,-47.37341,-20.57395,190.3488,203.4101,15,0.0515114,0.274128,0.03251081,-0.1015159,0.1342714,0.1685172,0.08719066,0.08154909,0.009765314,-0.0707537,0.01163859,-0.05419726,5,0
2013-11-05 23:45:18.008,34,3.4,40.68933,-73.95136,15.71451,5.8,171.4341,12,10,1383713117,0.3777161,-0.1876678,-1.277252,21.30678,-47.75632,-21.55618,188.9672,202.0285,15,-0.008278436,0.03130013,0.0682981,-0.1052553,0.1597577,0.1297087,-0.3605199,0.05649273,-0.003634763,0.07065089,-0.1613652,-0.09802341,5,0
2013-11-05 23:45:18.108,35,3.5,40.68933,-73.95136,15.71451,5.8,171.4341,12,10,1383713117,0.1912537,-0.2153168,-0.9944611,22.04019,-47.79111,-22.19968,188.7945,201.8557,15,-0.3621652,-0.08997144,-0.3006307,-0.1090533,0.1833269,0.1321323,-0.4156733,0.06199497,-0.3304231,-0.06132789,-0.08182909,0.2389084,5,0
2013-11-05 23:45:18.208,36,3.6,40.68933,-73.95136,15.71451,5.8,171.4341,12,10,1383713117,0.2314148,-0.1757965,-0.8793793,22.4942,-47.89548,-22.43676,190.0182,203.0794,15,0.1458848,-0.3185756,-0.1660167,-0.1166455,0.1312746,0.1479086,0.2530288,-0.4848865,-0.1095156,0.06181556,-0.01985113,0.1160388,5,0
2013-11-05 23:45:18.308,37,3.7,40.68933,-73.95136,15.71451,5.8,171.4341,12,10,1383713117,0.05259705,-0.3664398,-1.02832,22.21482,-48.66125,-21.08199,190.6926,203.7539,15,0.750479,-0.9138552,-0.008146876,-0.1241318,0.06541998,0.1642129,0.6897738,-1.067816,-0.008332124,0.02650954,-0.177909,-0.2834463,5,0
2013-11-05 23:45:18.409,38,3.8,40.68933,-73.95136,15.71451,5.8,171.4341,12,10,1383713117,-0.1006622,-0.2241516,-0.8062439,20.60831,-49.00934,-19.32081,191.3595,204.4208,15,-0.2706073,-0.08190525,0.2360884,-0.1164387,0.01554863,0.1810432,-0.3378405,-0.175266,0.2518885,-0.09418183,-0.01856784,0.2319811,5,0
2013-11-05 23:45:18.509,39,3.9,40.68926,-73.95135,16.8089,5.19,171.4341,12,10,1383713118,0.01338196,-0.2238312,-0.9574127,20.0146,-49.04413,-19.35468,191.5352,204.5964,15,-0.167704,0.218172,-0.108323,-0.1282405,-0.002295828,0.1722912,-0.1985578,0.100475,-0.2230912,-0.05186109,-0.08489229,0.01985992,5,0
2013-11-05 23:45:18.608,40,4,40.68926,-73.95135,16.8089,5.19,171.4341,12,10,1383713118,0.06326294,-0.2967529,-0.8591461,21.16707,-49.35739,-19.38856,192.2212,205.2825,15,0.02281583,0.3035711,-0.2061766,-0.1279542,0.002466666,0.1760162,0.221691,0.06395219,-0.1969721,0.04554508,-0.1178142,-0.03188761,5,0
2013-11-05 23:45:18.709,41,4.1,40.68926,-73.95135,16.8089,5.19,171.4341,12,10,1383713118,0.07191467,-0.3111877,-1.231796,20.7829,-49.87952,-19.49017,191.0959,204.1571,15,-0.2284571,0.2465325,-0.7322793,-0.1433754,0.04000581,0.1415619,-0.3088103,0.2923685,-0.562682,0.01880033,-0.1675194,-0.1843945,5,0
2013-11-05 23:45:18.809,42,4.2,40.68926,-73.95135,16.8089,5.19,171.4341,12,10,1383713118,0.3975677,-0.1073303,-0.9298248,21.83063,-49.1138,-20.23527,191.9947,205.0559,15,0.09524476,0.232797,0.1506034,-0.1902069,0.06102809,0.1431654,0.194425,0.1104348,0.1299685,0.417005,0.03032636,-0.07233022,5,0
2013-11-05 23:45:18.909,43,4.3,40.68926,-73.95135,16.8089,5.19,171.4341,12,10,1383713118,-0.08177185,-0.1384735,-0.9561462,22.59897,-48.62653,-19.62562,192.6264,205.6877,15,0.02979225,0.06753563,0.3514957,-0.1606321,0.06694627,0.1393011,-0.1740695,0.08825192,0.4084443,-0.09522471,0.01308809,0.1029936,5,0
2013-11-05 23:45:19.011,44,4.4,40.68926,-73.95135,16.8089,5.19,171.4341,12,10,1383713118,-0.1721649,-0.1763153,-0.9960938,20.99247,-47.93039,-19.76112,191.8569,204.9182,15,-0.2002535,-0.1582677,0.08817593,-0.1397427,0.0463051,0.1412089,-0.2524124,-0.2887204,0.104104,-0.1788234,-0.03150116,0.06799537,5,0
2013-11-05 23:45:19.109,45,4.5,40.68926,-73.95135,16.8089,5.19,171.4341,12,10,1383713118,0.1466522,-0.1898804,-0.861145,20.71307,-47.99997,-20.37075,192.1994,205.2607,15,0.6624081,-0.002067945,-0.1077861,-0.148544,0.0226942,0.1758567,0.7055104,-0.11078,-0.1369876,0.08150905,-0.03079786,0.02605628,5,0
2013-11-05 23:45:19.212,46,4.6,40.68926,-73.95135,16.8089,5.19,171.4341,12,10,1383713118,0.1613312,-0.1497955,-0.5784302,23.12282,-48.24362,-19.32081,194.7915,207.8527,15,-0.4268259,-0.0286138,0.0176232,-0.1551024,0.02011716,0.1961529,-0.2451212,-0.1043923,-0.02829079,0.1636653,0.04861148,0.3848915,5,0
2013-11-05 23:45:19.320,47,4.7,40.68926,-73.95135,16.8089,5.19,171.4341,12,10,1383713118,0.1669312,-0.2261047,-1.45726,23.19266,-47.40829,-19.32081,194.8337,207.895,15,0.02080621,0.4014215,-0.1530322,-0.1497889,0.03104361,0.1355597,-0.06937345,0.4316857,-0.1113975,0.09534477,-0.0831016,-0.4564594,5,0
2013-11-05 23:45:19.416,48,4.8,40.68926,-73.95135,16.8089,5.19,171.4341,12,10,1383713118,0.0453186,-0.1497192,-0.8763733,22.49417,-47.19943,-19.99821,194.1898,207.2511,15,0.2049388,0.5650163,0.2150609,-0.1513923,0.0396225,0.1499922,0.344825,0.2258459,0.2782886,0.1378346,0.01316948,-0.1432294,5,0
2013-11-05 23:45:19.511,49,4.9,40.68921,-73.95134,16.4476,5.53,171.4341,12,10,1383713119,-0.03926086,-0.1000214,-0.7255249,22.28462,-46.57294,-20.06594,194.017,207.0782,15,-0.2558709,-0.1577334,0.1554825,-0.1424156,0.05295834,0.1591671,0.1899277,0.09609905,0.2033744,-0.06199959,0.01397992,0.1830732,5,0
2013-11-05 23:45:19.624,50,5,40.68921,-73.95134,16.4476,5.53,171.4341,12,10,1383713119,0.05735779,-0.1590271,-1.069534,22.59893,-47.02545,-20.77721,194.0792,207.1405,15,0.9290888,-0.1407526,-0.285962,-0.1473263,0.04847312,0.1401602,0.7539275,-0.05617765,-0.4742131,-0.1112724,-0.05901347,-0.1979506,5,0
2013-11-05 23:45:19.710,51,5.1,40.68921,-73.95134,16.4476,5.53,171.4341,12,10,1383713119,0.05557251,-0.2471161,-0.8691864,23.71649,-47.93042,-19.82885,195.2134,208.2746,15,-0.8456042,0.3783955,0.01889033,-0.1694006,0.05356077,0.1750175,-0.7204607,0.1333265,-0.0709953,0.01374995,-0.04911068,0.343724,5,0
2013-11-05 23:45:19.808,52,5.2,40.68921,-73.95134,16.4476,5.53,171.4341,12,10,1383713119,0.2729492,-0.1683502,-1.123291,23.85619,-48.48734,-20.16753,194.5454,207.6067,15,0.6610099,-0.001257012,0.02274606,-0.1769421,0.05130951,0.1596541,0.6990688,-0.2031273,-0.09807856,0.1737763,-0.01608741,-0.271509,5,0
2013-11-05 23:45:19.921,53,5.3,40.68921,-73.95134,16.4476,5.53,171.4341,12,10,1383713119,-0.02238464,-0.3189545,-0.7359467,24.51975,-48.87024,-20.26917,195.4688,208.53,15,-0.758851,0.1109907,0.1226601,-0.1596283,0.03443597,0.1647404,-0.7708172,-0.09984565,0.1313122,0.003268414,-0.1394248,0.3453274,5,0
2013-11-05 23:45:20.009,54,5.4,40.68921,-73.95134,16.4476,5.53,171.4341,12,10,1383713119,0.3422241,-0.1455994,-0.7792511,24.83408,-48.97464,-20.43851,195.4282,208.4894,15,-0.2743178,-0.5577543,-0.2621014,-0.1714893,0.03742081,0.1541379,-0.2299541,-0.4284814,-0.3318081,0.1952855,-0.04433243,0.1751051,5,0
2013-11-05 23:45:20.111,55,5.5,40.68921,-73.95134,16.4476,5.53,171.4341,12,10,1383713119,-0.08305359,-0.2209625,-1.398956,22.63387,-48.10443,-21.21749,194.165,207.2262,15,-0.4025427,0.2359987,0.4977848,-0.1537082,0.003681566,0.1061091,-0.651428,0.03003968,0.6116052,0.2169965,-0.0630047,-0.2883306,5,0
2013-11-05 23:45:20.224,56,5.6,40.68921,-73.95134,16.4476,5.53,171.4341,12,10,1383713119,0.001083374,-0.2224121,-0.786026,20.95751,-47.33865,-22.84321,193.1369,206.1982,15,-0.02459882,0.2200397,0.04287556,-0.1372541,-0.00311298,0.1287878,0.05317346,0.02759804,0.05863856,0.004353674,-0.0897381,0.1862936,5,0
2013-11-05 23:45:20.309,57,5.7,40.68921,-73.95134,16.4476,5.53,171.4341,12,10,1383713119,0.06690979,-0.2702637,-0.8358765,22.07507,-48.17404,-21.48844,193.8852,206.9465,15,0.2191774,0.2550006,-0.008988967,-0.1420842,0.006417904,0.1495465,0.1760172,0.1996023,-0.02061762,0.03717184,-0.1323366,0.1038697,5,0
2013-11-05 23:45:20.414,58,5.8,40.68921,-73.95134,16.4476,5.53,171.4341,12,10,1383713119,0.05717468,-0.2920685,-0.6366577,22.17986,-47.99997,-21.38683,194.2763,207.3375,15,0.02220464,0.2060078,-0.01441383,-0.1402094,0.0118811,0.1711036,0.2728969,0.1454004,0.03021617,0.06603619,-0.1318541,0.2305824,5,0
2013-11-05 23:45:20.517,59,5.9,40.68915,-73.95132,15.57321,5.8,171.4341,12,10,1383713120,0.1054535,-0.4415741,-1.003311,22.31956,-48.48727,-21.52232,193.889,206.9503,15,-0.1145007,0.2854102,-0.195732,-0.1393131,0.02517869,0.162289,0.002834403,0.18997,-0.04116439,0.08503333,-0.2432381,-0.0203345,5,0
2013-11-05 23:45:20.609,60,6,40.68915,-73.95132,15.57321,5.8,171.4341,12,10,1383713120,0.2974243,-0.262558,-1.369659,23.15775,-47.99997,-21.59005,194.0039,207.0651,15,0.2260291,-0.2635251,0.3792887,-0.1516613,0.05944527,0.1772497,0.221917,-0.2857085,0.3500236,0.3879164,-0.03192892,-0.415264,5,0
2013-11-05 23:45:20.712,61,6.1,40.68915,-73.95132,15.57321,5.8,171.4341,12,10,1383713120,-0.1317291,-0.3586884,-0.9064178,21.97031,-47.02542,-21.11588,194.3089,207.3702,15,-0.1002869,-0.08417134,0.5264454,-0.1193154,0.02384721,0.2004783,0.06036184,-0.2436381,0.5157905,-0.1176667,-0.146626,0.01487956,5,0
2013-11-05 23:45:20.815,62,6.2,40.68915,-73.95132,15.57321,5.8,171.4341,12,10,1383713120,0.01901245,-0.2420044,-0.9546356,20.95753,-47.06024,-22.03036,194.1921,207.2534,15,0.4447314,-0.1763529,-0.02074549,-0.108885,0.005149255,0.1940395,0.4494834,-0.2726396,-0.04850923,-0.1645832,-0.06723138,-0.1404838,5,0
2013-11-05 23:45:20.911,63,6.3,40.68915,-73.95132,15.57321,5.8,171.4341,12,10,1383713120,0.1966095,-0.2802277,-1.21077,20.71307,-46.81656,-21.99648,194.7076,207.7688,15,0.3774016,0.2126667,-0.2132353,-0.1174803,0.013354,0.1715645,-0.1057046,0.4165336,-0.1770066,0.1018479,-0.1165989,-0.06365814,5,0
2013-11-05 23:45:21.009,64,6.4,40.68915,-73.95132,15.57321,5.8,171.4341,12,10,1383713120,0.2610016,-0.2519836,-0.7337799,22.59895,-47.86078,-21.38685,195.8078,208.8691,15,0.244034,0.009127718,0.1620395,-0.125864,0.01588093,0.196568,0.4268699,-0.1731378,0.06436679,0.3055468,-0.07538631,0.09599067,5,0
2013-11-05 23:45:21.123,65,6.5,40.68915,-73.95132,15.57321,5.8,171.4341,12,10,1383713120,0.1264801,-0.2404785,-1.038361,21.27185,-47.23425,-21.59007,195.0937,208.155,15,0.1417276,0.04140124,0.1560474,-0.1125783,0.02312354,0.1883546,-0.05726358,0.07749006,-0.09401526,-0.1937636,-0.04510275,0.0403854,5,0
2013-11-05 23:45:21.209,66,6.6,40.68915,-73.95132,15.57321,5.8,171.4341,12,10,1383713120,0.09109497,-0.141861,-1.107864,20.92262,-47.72153,-22.47066,194.4816,207.5429,15,0.2808516,0.2328767,-0.1719672,-0.1167963,0.03300581,0.1674306,-0.389167,0.5354398,-0.4089513,-0.07909293,-0.1920084,0.08414251,5,0
2013-11-05 23:45:21.309,67,6.7,40.68915,-73.95132,15.57321,5.8,171.4341,12,10,1383713120,0.05975342,-0.2416687,-1.065918,22.17989,-47.65195,-22.13197,195.2462,208.3074,15,-0.60044,0.694602,0.1351773,-0.1191499,0.03577111,0.1629261,-0.7200771,0.5478208,0.08186974,0.02823248,-0.1309609,0.1811177,5,0
2013-11-05 23:45:21.414,68,6.8,40.68915,-73.95132,15.57321,5.8,171.4341,12,10,1383713120,-0.01422119,-0.3104553,-0.8145142,22.11004,-47.37347,-22.47068,195.1264,208.1876,15,0.3591587,-0.1634188,0.04537387,-0.1106239,0.02766192,0.1863644,0.5547196,-0.419103,0.05480846,-0.02139638,-0.1350555,0.05487921,5,0
2013-11-05 23:45:21.523,69,6.9,40.68913,-73.95132,17.21213,6.3,171.4341,12,10,1383713121,0.06793213,-0.2237396,-1.171555,22.14497,-47.33865,-22.77551,194.5778,207.639,15,0.1724466,0.3383405,-0.3211389,-0.1154736,0.03951196,0.1542929,-0.8847511,0.6101159,-0.2808026,-0.1161046,-0.08389788,0.1752307,5,0
2013-11-05 23:45:21.616,70,7,40.68913,-73.95132,17.21213,6.3,171.4341,12,10,1383713121,0.3399048,-0.2819672,-1.471161,22.94823,-47.99997,-22.132,196.8038,209.8651,15,1.041984,-0.5679548,-0.2638055,-0.1256911,0.04922909,0.1532606,0.6645168,-0.2303856,-0.330288,0.1183445,-0.0963774,-0.3928473,5,0
2013-11-05 23:45:21.724,71,7.1,40.68913,-73.95132,17.21213,6.3,171.4341,12,10,1383713121,0.09472656,-0.2840118,-1.015274,21.37666,-48.31329,-22.30134,194.2446,207.3059,15,0.5317203,-0.1077076,-0.4675366,-0.1009365,0.0303604,0.1815212,0.4973539,-0.08653403,-0.4756233,-0.1937364,-0.1358192,-0.3252174,5,0
2013-11-05 23:45:21.810,72,7.2,40.68913,-73.95132,17.21213,6.3,171.4341,12,10,1383713121,0.3513031,-0.2864685,-1.031128,23.26257,-49.00943,-21.96265,195.1241,208.1854,15,-0.6518787,0.7515928,0.1513184,-0.1276639,0.05752593,0.1608231,-0.7797219,0.6052247,0.1652082,0.325282,-0.0981243,0.02145849,5,0
2013-11-05 23:45:21.909,73,7.3,40.68913,-73.95132,17.21213,6.3,171.4341,12,10,1383713121,0.175705,-0.2470245,-0.8987427,24.27536,-48.83539,-22.40296,195.8866,208.9479,15,0.8700819,-0.2770678,0.006808638,-0.1272052,0.05699787,0.1819261,0.8527735,-0.461086,-0.04169155,0.100101,-0.05181805,-0.2032655,5,0
2013-11-05 23:45:22.018,74,7.4,40.68913,-73.95132,17.21213,6.3,171.4341,12,10,1383713121,-0.151123,-0.296402,-1.045715,23.29748,-48.34808,-22.33521,195.9958,209.057,15,-0.5412529,0.5380832,-0.00373748,-0.1127145,0.05268108,0.1766374,-0.9506556,0.4223911,0.08305851,-0.1694064,-0.1222534,0.1673243,5,0
2013-11-05 23:45:22.109,75,7.5,40.68913,-73.95132,17.21213,6.3,171.4341,12,10,1383713121,0.1022491,-0.1965942,-0.7973633,23.85625,-48.41766,-22.06428,196.2594,209.3207,15,-0.4707561,0.3854018,0.08230846,-0.1164446,0.04274969,0.1930687,-0.4331806,0.1704678,0.04243509,0.02533338,0.01627333,0.2732938,5,0
2013-11-05 23:45:22.210,76,7.6,40.68913,-73.95132,17.21213,6.3,171.4341,12,10,1383713121,0.1490936,-0.3022156,-1.281235,23.61179,-48.52209,-21.21754,194.9192,207.9804,15,0.7497312,-0.2396997,-0.1793983,-0.1163858,0.06411559,0.1830872,0.4992908,-0.09954501,-0.185934,0.07521331,-0.1737994,-0.3003045,5,0
2013-11-05 23:45:22.329,77,7.7,40.68913,-73.95132,17.21213,6.3,171.4341,12,10,1383713121,-0.03817749,-0.2198181,-0.3413696,24.31028,-49.35748,-19.5918,196.7348,209.7961,15,-0.8540305,0.2995337,0.2379668,-0.1072064,0.03200722,0.2484864,-0.4918019,0.0413318,0.2978864,-0.01772844,0.05623983,0.6049435,5,0
2013-11-05 23:45:22.409,78,7.8,40.68913,-73.95132,17.21213,6.3,171.4341,12,10,1383713121,0.3276367,-0.3453827,-1.383652,23.96104,-49.98401,-20.8111,193.871,206.9323,15,1.117306,-0.8203285,-0.7269223,-0.1170451,0.08763115,0.1815135,0.8168288,-0.6614926,-0.7246565,0.1415189,-0.2363517,-0.7262267,5,0
2013-11-05 23:45:22.526,79,7.9,40.68901,-73.9513,16.43756,8.04,171.573,12,10,1383713122,0.4207764,-0.1505585,-0.524704,24.65952,-50.54092,-19.93052,195.8611,208.9223,15,-0.3117989,0.09595183,0.4382767,-0.1326658,0.05218141,0.2257605,-0.2157511,0.09749341,0.4907491,0.4409108,0.07428093,0.444611,5,0
2013-11-05 23:45:22.616,80,8,40.68901,-73.9513,16.43756,8.04,171.573,12,10,1383713122,0.001739502,-0.2813263,-0.977417,23.7515,-50.12326,-20.33694,194.7743,207.8355,15,0.4711992,-0.1533456,-0.2832088,-0.115572,0.05159511,0.2006077,0.4103135,-0.1972463,-0.2474897,-0.2713937,-0.1103054,-0.3623618,5,0
2013-11-05 23:45:22.709,81,8.1,40.68901,-73.9513,16.43756,8.04,171.573,12,10,1383713122,0.1491394,-0.2736359,-1.469116,23.3324,-49.2879,-20.74337,194.9751,208.0363,15,0.3530302,0.1977954,-0.03160959,-0.1219722,0.0617524,0.175597,-0.6641514,0.6686434,0.08138043,0.1643335,-0.07284738,0.1940341,5,0
2013-11-05 23:45:22.811,82,8.2,40.68901,-73.9513,16.43756,8.04,171.573,12,10,1383713122,0.1974792,-0.1137543,-0.572876,23.54195,-49.0094,-20.40469,196.1654,209.2267,15,-0.01640587,-0.05759885,0.2613001,-0.12999,0.03629168,0.225813,0.3367007,-0.3342803,0.1274173,0.1548535,0.07405747,0.2964041,5,0
2013-11-05 23:45:22.916,83,8.3,40.68901,-73.9513,16.43756,8.04,171.573,12,10,1383713122,0.04771423,-0.3403931,-1.073364,23.36732,-49.11383,-20.70951,195.3716,208.4329,15,-0.007976966,0.03759318,-0.3108828,-0.1159552,0.05376598,0.1969353,0.2101834,-0.2145371,-0.3138819,-0.2801946,-0.2224413,-0.4514866,5,0
2013-11-05 23:45:23.009,84,8.400001,40.68901,-73.9513,16.43756,8.04,171.573,12,10,1383713122,0.2387543,-0.2735291,-1.033188,23.68164,-49.70554,-20.7434,193.9925,207.0538,15,0.3092662,-0.2725447,-0.05232073,-0.1259163,0.06019381,0.1891319,0.2554258,-0.1381654,-0.1253166,0.05491368,0.03587624,-0.05646097,5,0
2013-11-05 23:45:23.109,85,8.5,40.68901,-73.9513,16.43756,8.04,171.573,12,10,1383713122,-0.1466675,-0.3300018,-1.191849,23.4721,-50.1232,-20.60792,193.3513,206.4126,15,0.1210119,0.04392831,-0.2404579,-0.1179603,0.05124989,0.19432,0.1533632,-0.03944984,-0.1663332,-0.1514291,-0.1359717,-0.1955546,5,0
2013-11-05 23:45:23.225,86,8.6,40.68901,-73.9513,16.43756,8.04,171.573,12,10,1383713122,0.1941223,-0.175354,-0.9859467,23.71657,-48.97458,-20.98048,194.0201,207.0814,15,0.391922,-0.2203928,0.02556315,-0.129062,0.05285847,0.2000571,0.3257419,-0.2315538,-0.03324689,0.07871307,0.04293309,0.01843554,5,0
2013-11-05 23:45:23.309,87,8.7,40.68901,-73.9513,16.43756,8.04,171.573,12,10,1383713122,0.2075958,-0.2100067,-1.326828,24.51983,-48.52206,-21.89495,194.5926,207.6538,15,0.9788502,-0.8053532,-0.1497069,-0.1198542,0.07443663,0.1777287,0.1875767,0.3258627,-0.1663845,-0.1201477,-0.0896697,-0.4602349,5,0
2013-11-05 23:45:23.409,88,8.8,40.68901,-73.9513,16.43756,8.04,171.573,12,10,1383713122,0.07092285,-0.1920013,-0.5132141,23.99596,-48.34802,-21.25143,195.2171,208.2783,15,-0.3284138,0.08418865,0.1275817,-0.1258194,0.03753496,0.2229548,0.2022387,-0.3033219,0.09542593,0.1570215,-0.04022505,0.3886545,5,0
2013-11-05 23:45:23.535,89,8.900001,40.68892,-73.95128,15.76947,8.97,171.5805,12,10,1383713123,0.2581635,-0.1858215,-1.484558,23.7515,-48.59167,-21.48852,193.1594,206.2207,15,1.253933,-0.9761308,-0.5242227,-0.1157925,0.08387796,0.1619722,0.4242629,-0.06620768,-0.4095295,-0.1955065,-0.1081748,-0.6214627,5,0
2013-11-05 23:45:23.609,90,9,40.68892,-73.95128,15.76947,8.97,171.5805,12,10,1383713123,0.03652954,-0.307663,-0.9063263,23.64672,-47.86072,-20.70953,194.8742,207.9355,15,-0.2268009,0.2062315,-0.06334142,-0.1254602,0.04613029,0.2023197,-0.4178346,0.08761314,0.02280207,0.03958922,-0.01184154,0.4945369,5,0
2013-11-05 23:45:23.712,91,9.1,40.68892,-73.95128,15.76947,8.97,171.5805,12,10,1383713123,0.2580109,-0.1520996,-1.008514,23.68164,-47.40826,-20.47242,194.4194,207.4806,15,0.1566274,-0.02958985,0.05926439,-0.1277084,0.05498669,0.184716,0.1215694,-0.1635813,-0.08747405,0.09670227,-0.02192959,-0.03729605,5,0
2013-11-05 23:45:23.820,92,9.2,40.68892,-73.95128,15.76947,8.97,171.5805,12,10,1383713123,0.03115845,-0.1339111,-1.262955,23.40225,-47.40829,-21.01431,193.9538,207.015,15,0.4434467,-0.3970331,0.02348429,-0.1274465,0.08875323,0.195091,0.4537782,-0.4318467,-0.06408985,-0.1669266,0.02924396,-0.3784831,5,0
2013-11-05 23:45:23.909,93,9.3,40.68892,-73.95128,15.76947,8.97,171.5805,12,10,1383713123,0.1532745,-0.1305542,-0.657486,23.08793,-47.51266,-21.25141,194.4436,207.5049,15,-0.3487101,0.2365936,0.01402634,-0.131184,0.06754245,0.2120978,-0.1121215,-0.003621507,-0.07609417,0.005005158,0.04014677,0.1595055,5,0
2013-11-05 23:45:24.009,94,9.400001,40.68892,-73.95128,15.76947,8.97,171.5805,12,10,1383713123,0.3383026,-0.02073669,-0.9690552,23.43717,-46.88617,-21.2514,194.2068,207.268,15,-0.2155826,0.4283601,0.1298331,-0.1420021,0.09250513,0.1911173,0.1909674,-0.08137438,-0.1700506,0.1474373,0.1398461,-0.1565604,5,0
2013-11-05 23:45:24.122,95,9.5,40.68892,-73.95128,15.76947,8.97,171.5805,12,10,1383713123,0.07177734,-0.197403,-0.9783173,22.91333,-48.59164,-21.69167,192.9475,206.0088,15,0.6118743,-0.5700043,0.05582651,-0.1344524,0.08390639,0.2102038,0.800523,-0.8393993,0.02065264,-0.01528232,0.004344056,-0.1916815,5,0
2013-11-05 23:45:24.208,96,9.6,40.68892,-73.95128,15.76947,8.97,171.5805,12,10,1383713123,0.05149841,-0.1275024,-0.8121643,22.49426,-49.77512,-21.28526,192.6117,205.6729,15,-0.5604742,0.5384166,0.04356266,-0.1277332,0.05783516,0.216319,-0.2426334,-0.06777419,-0.1114758,-0.1223737,0.07179835,0.06221932,5,0
2013-11-05 23:45:24.312,97,9.7,40.68892,-73.95128,15.76947,8.97,171.5805,12,10,1383713123,-0.0158844,-0.2441864,-1.462051,22.8435,-49.00937,-20.94656,192.4301,205.4914,15,0.6406721,-0.4618305,-0.2069204,-0.1190303,0.08342488,0.193352,0.2313015,-0.1308367,0.032656,-0.03172655,0.05231794,-0.5926955,5,0
2013-11-05 23:45:24.424,98,9.8,40.68892,-73.95128,15.76947,8.97,171.5805,12,10,1383713123,0.006668091,-0.09115601,-0.6638336,22.70381,-47.89554,-19.79501,194.3103,207.3716,15,-0.5666149,0.5647779,-0.08703344,-0.1267835,0.04452293,0.235084,-0.4342652,0.1458586,0.0351374,0.01067107,0.1491539,0.4111063,5,0
2013-11-05 23:45:24.519,99,9.900001,40.68885,-73.95126,15.20444,8.85,171.5805,12,10,1383713124,0.06535339,-0.2229309,-1.258057,22.87842,-48.69614,-19.96436,192.9791,206.0404,15,-0.3114538,0.6619948,-0.04838671,-0.1269502,0.07761363,0.2069053,-0.3062534,0.5404313,0.008584263,0.004852255,0.06344916,-0.2247906,5,0
2013-11-05 23:45:24.608,100,10,40.68885,-73.95126,15.20444,8.85,171.5805,12,10,1383713124,-0.06884766,-0.1726074,-0.6514893,23.19274,-48.03476,-20.8111,194.3787,207.4399,15,-0.4383933,0.251191,0.3474299,-0.1282126,0.05574204,0.2371226,-0.4211763,0.1200079,0.449146,0.1294243,0.08143381,0.3841434,5,0
2013-11-05 23:45:24.716,101,10.1,40.68885,-73.95126,15.20444,8.85,171.5805,12,10,1383713124,0.1110687,-0.09457397,-1.132263,22.70381,-47.33859,-21.01429,194.5009,207.5621,15,-0.5106087,0.657213,-0.0912423,-0.1268591,0.05561556,0.2087471,-0.7443619,0.5370232,-0.0931291,-0.03606963,0.1234331,0.1642635,5,0
2013-11-05 23:45:24.809,102,10.2,40.68885,-73.95126,15.20444,8.85,171.5805,12,10,1383713124,0.06352234,-0.1403046,-0.9045258,22.17996,-48.41763,-22.33521,192.6485,205.7098,15,0.632342,-0.5765046,0.009785519,-0.1297728,0.05040926,0.2205517,0.691767,-0.7231934,0.01450269,0.03010205,0.05720789,-0.1927294,5,0
2013-11-05 23:45:24.910,103,10.3,40.68885,-73.95126,15.20444,8.85,171.5805,12,10,1383713124,-0.07041931,-0.06317139,-0.7579803,21.06241,-48.4176,-21.04818,192.995,206.0562,15,-0.3763057,0.4216849,-0.006375608,-0.1243545,0.02809422,0.2324246,-0.2755227,0.1391754,0.006108014,-0.09677794,0.1762605,0.2051029,5,0
2013-11-05 23:45:25.020,104,10.4,40.68885,-73.95126,15.20444,8.85,171.5805,12,10,1383713124,0.2494049,-0.1392975,-1.17366,21.65612,-48.87009,-20.8111,192.487,205.5483,15,0.2991103,-0.07442363,0.04403483,-0.1311819,0.05766961,0.2210363,0.245486,-0.000445712,-0.03737806,0.1453637,0.07957709,-0.2107046,5,0
2013-11-05 23:45:25.109,105,10.5,40.68885,-73.95126,15.20444,8.85,171.5805,12,10,1383713124,0.002639771,-0.162796,-0.871048,21.55136,-49.46179,-20.09986,192.3762,205.4374,15,0.02072605,-0.0860731,0.06112674,-0.1276611,0.03694694,0.2488958,0.279688,-0.3953688,-0.01258762,-0.04510814,0.01975621,-0.07973997,5,0
2013-11-05 23:45:25.208,106,10.6,40.68885,-73.95126,15.20444,8.85,171.5805,12,10,1383713124,0.007797241,-0.1239624,-1.122772,18.47806,-47.23419,-15.96781,190.7082,203.7695,15,0.3680036,-0.2179622,-0.1881891,-0.1315579,0.04492684,0.240987,0.3544928,-0.1922604,-0.2782764,-0.2699628,0.05634925,-0.2902225,5,0
2013-11-05 23:45:25.319,107,10.7,40.68885,-73.95126,15.20444,8.85,171.5805,12,10,1383713124,0.1392365,-0.06544495,-1.725327,18.19867,-47.02536,-17.1871,188.617,201.6782,15,0.2779669,0.3978158,-0.04942134,-0.132721,0.08023103,0.2062348,-0.4882044,1.044469,0.01007033,-0.006821866,0.1424743,-0.292513,5,0
2013-11-05 23:45:25.416,108,10.8,40.68885,-73.95126,15.20444,8.85,171.5805,12,10,1383713124,-0.06518555,-0.03747559,-0.7345886,18.79239,-47.75632,-17.35644,189.9794,203.0407,15,-0.2575812,0.2230179,0.2450031,-0.1309664,0.01852719,0.262575,-0.0865878,-0.0622922,0.2261913,0.0546644,0.133851,0.2986584,5,0
2013-11-05 23:45:25.508,109,10.9,40.68876,-73.95125,16.26315,9.33,171.5805,12,10,1383713125,0.1292267,0.01647949,-1.122726,19.45593,-48.62643,-19.62566,189.2074,202.2686,15,0.9529203,-0.7191459,-0.1909271,-0.1324206,0.05730505,0.2448396,0.8277879,-0.4364041,-0.2740311,-0.131829,0.2682186,-0.6474899,5,0
2013-11-05 23:45:25.610,110,11,40.68876,-73.95125,16.26315,9.33,171.5805,12,10,1383713125,0.1516724,-0.2077789,-0.9346161,19.45593,-49.3226,-20.30305,189.9789,203.0401,15,-0.6451633,1.079998,0.1626635,-0.1354888,0.03577577,0.269364,-0.5964754,0.6198872,0.1796188,0.1704319,0.1227621,0.3536434,5,0
2013-11-05 23:45:25.709,111,11.1,40.68876,-73.95125,16.26315,9.33,171.5805,12,10,1383713125,0.09660339,-0.2099304,-0.5355072,19.31624,-50.15793,-21.18366,190.3011,203.3624,15,0.4265103,-0.09922459,0.2687159,-0.1343641,0.01617202,0.3385197,0.762083,-0.4632376,0.1551996,0.1437583,0.04637035,0.1349574,5,0
2013-11-05 23:45:25.808,112,11.2,40.68876,-73.95125,16.26315,9.33,171.5805,12,10,1383713125,-0.06974792,-0.2069855,-2.074173,18.72253,-49.63586,-21.42074,189.4267,202.488,15,0.06946936,0.298257,-0.2510623,-0.1098645,0.08345642,0.2655537,-0.6434723,1.350165,-0.1134469,-0.4497003,-0.01284016,-0.7355242,5,0
2013-11-05 23:45:25.908,113,11.3,40.68876,-73.95125,16.26315,9.33,171.5805,12,10,1383713125,0.1130371,-0.2590485,-0.4940796,17.95419,-49.28781,-21.14979,188.3239,201.3851,15,-0.05468562,0.005646701,0.09587939,-0.1334545,0.01712619,0.320516,0.1842006,-0.289265,0.144058,0.1907628,0.0249867,0.3389485,5,0
2013-11-05 23:45:26.009,114,11.4,40.68876,-73.95125,16.26315,9.33,171.5805,12,10,1383713125,0.1127014,-0.1705475,-0.7826233,17.98911,-48.48724,-18.67733,189.2607,202.322,15,-0.09835,0.003271161,0.0960272,-0.137528,0.02681665,0.2853413,-0.05239882,-0.1496975,0.07599146,0.1360902,0.1403717,0.05237555,5,0
2013-11-05 23:45:26.109,115,11.5,40.68876,-73.95125,16.26315,9.33,171.5805,12,10,1383713125,0.03282166,-0.0355072,-0.9851227,17.57002,-46.8165,-20.30305,189.2078,202.2691,15,-0.3803801,0.3183143,0.04369848,-0.1338132,0.04054286,0.2490854,-0.5231806,0.3669298,0.0198852,-0.07970141,0.2158933,0.1137429,5,0
2013-11-05 23:45:26.208,116,11.6,40.68876,-73.95125,16.26315,9.33,171.5805,12,10,1383713125,0.08035278,-0.02577209,-0.8677826,17.77957,-45.56345,-21.79328,188.4973,201.5586,15,0.7417684,-0.8011364,-0.1477168,-0.1380723,0.0459653,0.1960543,0.6851877,-0.8515033,-0.1777187,-0.007135505,0.1329722,-0.2544308,5,0
2013-11-05 23:45:26.308,117,11.7,40.68876,-73.95125,16.26315,9.33,171.5805,12,10,1383713125,0.03311157,-0.04310608,-0.6678467,16.90646,-45.73746,-22.16586,189.7437,202.8049,15,0.08194759,0.01536404,-0.08236039,-0.1400072,-0.00108724,0.2292349,0.1193999,-0.1136547,-0.02414578,0.04503463,0.1753526,0.3616726,5,0
2013-11-05 23:45:26.408,118,11.8,40.68876,-73.95125,16.26315,9.33,171.5805,12,10,1383713125,-0.0526886,-0.2572937,-1.345383,15.29996,-46.85126,-23.18192,187.7415,200.8027,15,-0.1504271,0.9451945,-0.1082495,-0.1353084,0.05310511,0.1980608,-0.397097,1.141577,-0.02531555,-0.11381,-0.014932,-0.04519367,5,0
2013-11-05 23:45:26.508,119,11.9,40.68876,-73.95125,16.26315,9.33,171.5805,12,10,1383713125,0.1656342,-0.1523285,-1.267044,15.61429,-49.2529,-23.89318,184.9971,198.0584,15,0.3867698,-0.2208005,0.1573545,-0.1388196,0.07475766,0.1988701,0.2623432,-0.1375814,0.1470271,0.2105975,0.0563112,-0.2935657,5,0
2013-11-05 23:45:26.608,120,12,40.68868,-73.95123,16.4928,9.79,171.5805,12,10,1383713126,0.03475952,-0.1345215,-0.6180573,15.47459,-50.6452,-23.08031,185.6165,198.6778,15,-0.8784288,0.6257968,-0.1073643,-0.1397522,0.03303801,0.2245434,-0.6547375,0.2377801,-0.1496026,-0.03327087,0.04059339,0.3564897,5,0
2013-11-05 23:45:26.708,121,12.1,40.68868,-73.95123,16.4928,9.79,171.5805,12,10,1383713126,0.2182922,-0.177948,-0.8574219,15.61429,-50.854,-22.6739,184.7351,197.7964,15,0.0430191,0.0607001,0.04939099,-0.1432631,0.057148,0.2046103,0.1548109,-0.3162056,-0.03479262,0.16226,0.06800798,-0.123151,5,0
2013-11-05 23:45:26.808,122,12.2,40.68868,-73.95123,16.4928,9.79,171.5805,12,10,1383713126,-0.01696777,-0.1140594,-1.183167,16.94141,-49.94907,-22.5384,185.7249,198.7862,15,-0.2004055,0.5858225,-0.1516771,-0.1391707,0.08315304,0.1864852,-0.291342,0.4607349,-0.1117235,-0.1345042,0.008602618,-0.1001401,5,0
2013-11-05 23:45:26.909,123,12.3,40.68868,-73.95123,16.4928,9.79,171.5805,12,10,1383713126,0.06491089,-0.1689453,-0.6286163,16.87156,-50.01868,-21.1159,185.951,199.0122,15,0.3567624,-0.1116855,0.02656663,-0.1511704,0.0520051,0.2365206,0.5541812,-0.4113171,0.08480803,0.01928977,0.06056964,0.2793775,5,0
2013-11-05 23:45:27.008,124,12.4,40.68868,-73.95123,16.4928,9.79,171.5805,12,10,1383713126,0.2443542,-0.1880035,-1.476517,16.73187,-49.46179,-20.77721,186.0588,199.1201,15,-0.4839312,1.154704,0.1221232,-0.1451405,0.1055879,0.180387,-0.9833556,1.550585,0.2300711,0.1185472,0.05343377,0.06171526,5,0
2013-11-05 23:45:27.108,125,12.5,40.68868,-73.95123,16.4928,9.79,171.5805,12,10,1383713126,0.1723938,-0.2216492,-0.9460449,18.82731,-49.18332,-22.19971,187.2557,200.317,15,0.05254656,0.1124245,0.4320816,-0.1358817,0.07222539,0.2161171,0.05769979,-0.04862774,0.4768158,0.2284052,0.02028586,0.07689789,5,0
2013-11-05 23:45:27.208,126,12.6,40.68868,-73.95123,16.4928,9.79,171.5805,12,10,1383713126,-0.008285522,-0.2083282,-0.8550568,17.98913,-49.11374,-20.16755,187.9295,200.9907,15,0.2714994,-0.2500761,-0.02492319,-0.1370481,0.059653,0.2324268,0.3666269,-0.4428947,-0.1059449,-0.1193091,0.005974471,0.04134095,5,0
2013-11-05 23:45:27.308,127,12.7,40.68868,-73.95123,16.4928,9.79,171.5805,12,10,1383713126,0.197937,-0.2548981,-1.22464,17.9542,-48.10434,-19.38856,188.0473,201.1085,15,-0.1769175,0.4747207,-0.3440799,-0.1365243,0.09566029,0.190214,-0.4449008,0.6737635,-0.2598688,-0.1296499,-0.1331203,-0.1040992,5,0
2013-11-05 23:45:27.409,128,12.8,40.68868,-73.95123,16.4928,9.79,171.5805,12,10,1383713126,0.3613892,-0.1325836,-0.9045105,19.45593,-46.53802,-19.69337,189.7876,202.8488,15,-0.6118783,0.7516735,0.3774424,-0.1599565,0.09426552,0.1759728,-0.7569845,0.5042791,0.3707138,0.3866367,0.05320934,0.2750006,5,0
2013-11-05 23:45:27.508,129,12.9,40.68861,-73.95122,16.0209,9,171.5805,12,10,1383713127,0.06469727,-0.06182861,-0.8281555,19.56071,-45.38937,-20.67558,189.2362,202.2975,15,0.4086778,-0.2661497,0.2171022,-0.1533556,0.0862754,0.1833028,0.4439074,-0.4058101,0.127398,-0.07537119,0.09714926,-0.05802299,5,0
2013-11-05 23:45:27.609,130,13,40.68861,-73.95122,16.0209,9,171.5805,12,10,1383713127,-0.1012421,-0.1470795,-0.7194672,19.73533,-44.24075,-19.28693,191.0951,204.1563,15,0.1299788,-0.1952156,0.01513368,-0.1378704,0.06234704,0.1999834,0.1588052,-0.3402092,0.05848378,-0.1821434,0.09776198,0.2686167,5,0
2013-11-05 23:45:27.709,131,13.1,40.68861,-73.95122,16.0209,9,171.5805,12,10,1383713127,0.1609344,-0.2131805,-1.034622,19.17654,-44.10153,-18.74502,191.0611,204.1223,15,-0.2948638,0.9016656,-0.01067954,-0.136103,0.06737538,0.1947887,-0.2973769,0.5834838,-0.04125675,0.009403495,-0.03851165,0.06199251,5,0
2013-11-05 23:45:27.808,132,13.2,40.68861,-73.95122,16.0209,9,171.5805,12,10,1383713127,0.288681,-0.4220123,-1.277634,18.93207,-44.76285,-19.79498,189.3214,202.3826,15,-0.08200512,0.4033722,0.1269992,-0.1337294,0.1054596,0.1949065,-0.09384493,0.2606391,0.1195027,0.2026065,-0.2083028,-0.1986706,5,0
2013-11-05 23:45:27.908,133,13.3,40.68861,-73.95122,16.0209,9,171.5805,12,10,1383713127,0.09468079,-0.3642426,-0.7168427,19.70041,-43.78827,-19.11759,190.5179,203.5791,15,0.2756076,-0.3778054,0.08114519,-0.1393122,0.06950802,0.2371918,0.5502967,-0.717659,0.03358768,0.008298143,-0.1356773,-0.002879614,5,0
2013-11-05 23:45:28.009,134,13.4,40.68861,-73.95122,16.0209,9,171.5805,12,10,1383713127,0.05633545,-0.2625275,-0.9564209,19.90995,-43.85788,-18.37247,192.0692,205.1304,15,-0.8700028,0.8720417,-0.007494934,-0.1394884,0.07862469,0.2084083,-0.736883,0.6191367,-0.01634271,-0.05841152,-0.02339798,0.1345645,5,0
2013-11-05 23:45:28.108,135,13.5,40.68861,-73.95122,16.0209,9,171.5805,12,10,1383713127,0.3710022,-0.1647186,-0.8667755,21.13228,-42.01312,-20.57398,192.238,205.2993,15,0.4026934,-0.7012244,-0.07609344,-0.1567934,0.09772113,0.1827302,0.4962811,-0.9019731,-0.2478357,0.2146666,-0.0389881,-0.2371606,5,0
2013-11-05 23:45:28.208,136,13.6,40.68861,-73.95122,16.0209,9,171.5805,12,10,1383713127,-0.3193207,-0.2275085,-0.9903564,20.36395,-41.73468,-19.89658,193.3567,206.418,15,0.07496905,-0.08848512,-0.1105936,-0.1411192,0.05763697,0.185625,-0.03409549,-0.1366284,-0.02733569,-0.3266045,-0.05019564,0.05076915,5,0
2013-11-05 23:45:28.311,137,13.7,40.68861,-73.95122,16.0209,9,171.5805,12,10,1383713127,-0.08239746,-0.1082611,-0.8776245,20.81795,-40.93414,-19.79499,195.97,209.0313,15,0.2413005,-0.2135962,-0.1243963,-0.1514411,0.04864645,0.1863999,0.1430605,-0.2573159,-0.1207488,-0.1375219,0.08157787,0.1423124,5,0
2013-11-05 23:45:28.414,138,13.8,40.68861,-73.95122,16.0209,9,171.5805,12,10,1383713127,0.01351929,-0.280838,-1.000336,22.2149,-42.32639,-19.99821,198.771,211.8322,15,-0.1296693,0.6852521,-0.01796675,-0.1519825,0.05340677,0.1842123,-0.2004546,0.5292716,0.005846795,-0.03216876,-0.03940772,0.1433613,5,0
2013-11-05 23:45:28.508,139,13.9,40.68847,-73.95119,16.00534,10.3,171.5805,8,10,1383713128,0.2854004,-0.1631927,-0.9850769,22.66892,-43.4054,-21.04816,197.2968,210.3581,15,0.4961613,-0.1452848,-0.1689456,-0.1732908,0.1044145,0.1870388,0.5052729,-0.2269681,-0.2798892,0.1274971,-0.01728162,-0.0807297,5,0
2013-11-05 23:45:28.611,140,14,40.68847,-73.95119,16.00534,10.3,171.5805,8,10,1383713128,0.09042358,-0.2795258,-1.262802,25.35809,-44.55402,-20.40464,198.4578,211.519,15,0.2717117,-0.3949705,0.09861739,-0.1697271,0.1180868,0.1861653,0.167265,-0.05029815,0.02767943,-0.03015981,-0.04694854,-0.09791409,5,0
2013-11-05 23:45:28.708,141,14.1,40.68847,-73.95119,16.00534,10.3,171.5805,8,10,1383713128,0.3213806,-0.1378174,-1.119995,26.19626,-45.87668,-21.21749,198.5814,211.6426,15,0.7097023,-0.8511154,-0.05670216,-0.1707652,0.1069559,0.1873995,0.7136525,-0.8340505,-0.1729232,0.0692044,0.02411892,-0.4343314,5,0
2013-11-05 23:45:28.808,142,14.2,40.68847,-73.95119,16.00534,10.3,171.5805,8,10,1383713128,-0.03507996,-0.1461487,-1.2202,27.03444,-48.87006,-21.82714,199.0216,212.0828,15,0.2498546,0.04069337,0.0786277,-0.1652346,0.07840223,0.2024545,0.1631473,0.01650806,0.04736514,-0.09050097,0.0009858087,-0.03524345,5,0
2013-11-05 23:45:28.915,143,14.3,40.68847,-73.95119,16.00534,10.3,171.5805,8,10,1383713128,0.1119385,-0.3056946,-1.15535,26.1264,-50.88882,-20.54011,197.2781,210.3393,15,0.4637994,-0.1361179,-0.2944292,-0.1679909,0.07860645,0.2099219,0.1927301,0.06997744,-0.2786075,-0.1043133,-0.2006283,-0.1879826,5,0
2013-11-05 23:45:29.010,144,14.4,40.68847,-73.95119,16.00534,10.3,171.5805,8,10,1383713128,0.068573,-0.1760406,-1.584015,27.03442,-49.84457,-19.59176,199.5628,212.6241,15,-0.03761129,0.706894,0.1196569,-0.1718845,0.07975265,0.2043189,-0.8003358,1.399875,0.0534297,-0.06737562,-0.02444045,0.0384649,5,0
2013-11-05 23:45:29.108,145,14.5,40.68847,-73.95119,16.00534,10.3,171.5805,8,10,1383713128,0.1928711,-0.2427216,-0.7758636,26.96458,-49.56613,-21.01427,198.2231,211.2843,15,0.6498235,-0.6342912,0.2523302,-0.1765458,0.03833899,0.2501581,0.8490735,-0.9977745,0.1441749,0.1671329,0.01634069,0.02521394,5,0
2013-11-05 23:45:29.210,146,14.6,40.68847,-73.95119,16.00534,10.3,171.5805,8,10,1383713128,-0.05654907,-0.2690887,-0.9407196,27.3138,-49.63571,-19.38854,200.5338,213.595,15,0.02322543,-0.02515249,-0.06712285,-0.1607889,0.01228451,0.2484542,-0.2121546,-0.02177122,-0.08432361,-0.1097769,-0.0984392,0.3124823,5,0
2013-11-05 23:45:29.308,147,14.7,40.68847,-73.95119,16.00534,10.3,171.5805,8,10,1383713128,0.1813965,-0.2724762,-1.425018,26.1264,-50.12302,-20.26917,199.8181,212.8793,15,-0.4342947,0.7913272,-0.1354321,-0.1656703,0.06019568,0.2019768,-0.6775815,0.9787185,-0.1457463,-0.04453212,-0.09278963,-0.189644,5,0
2013-11-05 23:45:29.414,148,14.8,40.68847,-73.95119,16.00534,10.3,171.5805,8,10,1383713128,0.2651978,-0.21492,-1.286148,25.04374,-49.39206,-20.57398,197.1617,210.2229,15,0.7833712,-0.7755804,-0.1926864,-0.1693443,0.07481623,0.1908791,0.5039365,-0.4567134,-0.1138044,0.2347013,-0.04117391,-0.3886151,5,0
2013-11-05 23:45:29.519,149,14.9,40.68841,-73.95118,14.87469,10.6,171.5805,8,10,1383713129,0.07125854,-0.1447144,-0.4499969,23.36737,-48.55673,-19.5579,198.3808,211.4421,15,-0.2220048,0.2134287,0.3033479,-0.1747217,0.003484897,0.2481406,0.2967115,-0.3837635,0.2334616,0.1419771,0.05888009,0.3687942,5,0
2013-11-05 23:45:29.610,150,15,40.68841,-73.95118,14.87469,10.6,171.5805,8,10,1383713129,0.1278381,-0.08834839,-0.7149658,21.62119,-47.4429,-18.94825,197.179,210.2402,15,0.2976882,-0.1805655,-0.1532766,-0.1823641,0.02321091,0.2458301,0.2832589,-0.2030577,-0.2916889,-0.03233773,0.09525974,0.2136624,5,0
2013-11-05 23:45:29.712,151,15.1,40.68841,-73.95118,14.87469,10.6,171.5805,8,10,1383713129,0.1144867,-0.5763702,-1.666077,20.71317,-47.72134,-19.42243,196.5937,209.6549,15,-0.4913399,1.298422,0.2049718,-0.167659,0.06004933,0.2131034,-0.9323584,1.536623,0.3554914,0.1519919,-0.2511371,-0.1328113,5,0
2013-11-05 23:45:29.818,152,15.2,40.68841,-73.95118,14.87469,10.6,171.5805,8,10,1383713129,0.1416016,-0.2880249,-0.6712952,19.66544,-47.72137,-20.37077,195.5171,208.5783,15,0.6245073,-0.6599204,0.2910321,-0.1685179,0.02030125,0.2590129,0.82266,-1.053039,0.1730282,0.2005158,-0.05266561,-0.1200733,5,0
2013-11-05 23:45:29.909,153,15.3,40.68841,-73.95118,14.87469,10.6,171.5805,8,10,1383713129,0.1654053,-0.2887115,-1.298248,19.63051,-47.12967,-20.13367,196.2809,209.3421,15,0.6108013,-0.6656699,-0.6425079,-0.1550675,0.04948806,0.2085037,0.3283291,-0.2885273,-0.5265127,-0.2733415,-0.09233538,-0.5664504,5,0
2013-11-05 23:45:30.012,154,15.4,40.68841,-73.95118,14.87469,10.6,171.5805,8,10,1383713129,0.5527802,-0.1301422,-0.3331757,20.71317,-47.16443,-20.77721,197.9462,211.0074,15,-0.4327911,-0.04602075,-0.004677842,-0.2162024,0.007016892,0.2488576,-0.09814199,-0.2900101,-0.3138048,0.4684801,0.0002946773,0.5246973,5,0
2013-11-05 23:45:30.127,155,15.5,40.68841,-73.95118,14.87469,10.6,171.5805,8,10,1383713129,-0.1696014,-0.153595,-1.271942,20.11945,-46.85114,-21.75941,196.3237,209.385,15,0.6833826,-0.5654504,0.01828793,-0.1896184,0.04233787,0.1919975,0.7870289,-0.9092243,-0.1381106,-0.2711618,0.007943472,-0.8303661,5,0
2013-11-05 23:45:30.212,156,15.6,40.68841,-73.95118,14.87469,10.6,171.5805,8,10,1383713129,-0.2617188,-0.1458435,-0.983429,19.59558,-48.62631,-22.94485,195.8451,208.9064,15,0.4784161,-0.2215316,-0.1288608,-0.1808724,0.03031783,0.2239431,0.3939972,-0.1868724,-0.03601069,-0.2849273,0.1738429,0.03427367,5,0
2013-11-05 23:45:30.311,157,15.7,40.68841,-73.95118,14.87469,10.6,171.5805,8,10,1383713129,0.05889893,-0.4216156,-0.6582489,18.86217,-51.37607,-21.75941,194.8784,207.9396,15,-0.5154958,0.9355152,0.197524,-0.1812458,0.02345007,0.2507721,-0.2573312,0.4788156,0.1963889,0.04286778,-0.1190202,0.3219551,5,0
2013-11-05 23:45:30.444,158,15.8,40.68841,-73.95118,14.87469,10.6,171.5805,8,10,1383713129,0.2128448,-0.3818512,-1.0923,19.87498,-53.36002,-21.72555,191.3598,204.4211,15,-0.7213933,0.8218156,0.1053174,-0.1812183,0.08907083,0.2227199,-0.335864,0.1914493,0.009857499,0.05103088,-0.2369568,-0.3361984,5,0
2013-11-05 23:45:30.516,159,15.9,40.68832,-73.95116,13.92017,9.52,171.8039,8,10,1383713130,0.1906433,-0.309494,-1.345612,21.06239,-52.87274,-22.26746,191.3396,204.4009,15,-0.3779779,0.6882586,-0.01593662,-0.1780105,0.09944596,0.2093968,-0.7422263,0.7175555,0.1113934,0.1157314,-0.1739813,-0.1189767,5,0
2013-11-05 23:45:30.609,160,16,40.68832,-73.95116,13.92017,9.52,171.8039,8,10,1383713130,0.09101868,-0.1481476,-0.7409515,22.73875,-52.38547,-21.92876,192.6541,205.7153,15,0.3031021,-0.229932,0.04949884,-0.1942363,0.0869839,0.2008786,0.2643213,-0.3535996,0.1041779,0.05793905,0.04886502,0.1745054,5,0
2013-11-05 23:45:30.719,161,16.1,40.68832,-73.95116,13.92017,9.52,171.8039,8,10,1383713130,0.06962585,-0.151413,-0.4517517,22.24983,-51.55014,-20.43853,193.0941,206.1554,15,-0.08510531,0.01882802,0.0213455,-0.1935542,0.06760823,0.2218053,-0.001185607,-0.05973316,0.02451381,-0.01617333,0.1702932,0.4483557,5,0
2013-11-05 23:45:30.809,162,16.2,40.68832,-73.95116,13.92017,9.52,171.8039,8,10,1383713130,0.08277893,-0.3089142,-1.491379,23.40232,-50.61035,-20.13369,193.421,206.4823,15,0.848694,-0.8078244,0.004868791,-0.1796115,0.1052117,0.1777179,0.1802765,0.2517202,0.1484793,-0.03151002,-0.004582122,-0.2691787,5,0
2013-11-05 23:45:30.909,163,16.3,40.68832,-73.95116,13.92017,9.52,171.8039,8,10,1383713130,0.03851318,-0.1916962,-1.381348,23.71664,-51.06284,-20.37078,193.9186,206.9799,15,0.2626018,0.3480352,-0.12007,-0.1745054,0.08989502,0.192305,-0.3909414,0.7756024,0.03300044,-0.01586877,-0.06316584,0.03493018,5,0
2013-11-05 23:45:31.022,164,16.4,40.68832,-73.95116,13.92017,9.52,171.8039,8,10,1383713130,0.2818909,-0.3338013,-0.8152161,25.18346,-51.13245,-20.16756,195.3793,208.4405,15,-0.6712719,1.004788,0.1679637,-0.1892384,0.07841577,0.2154498,-0.7314107,0.5619279,0.2933587,0.2753281,-0.1184275,0.2337967,5,0
2013-11-05 23:45:31.108,165,16.5,40.68832,-73.95116,13.92017,9.52,171.8039,8,10,1383713130,0.08323669,-0.3282166,-0.5994873,25.39301,-50.50595,-19.42245,195.8009,208.8621,15,-0.760071,0.3269587,0.3134083,-0.1759086,0.03138208,0.2476005,0.3856544,-0.7915087,0.3873986,0.1983702,-0.1374138,0.05032476,5,0
2013-11-05 23:45:31.212,166,16.6,40.68832,-73.95116,13.92017,9.52,171.8039,8,10,1383713130,-0.09521484,-0.3573303,-1.567108,24.86914,-49.14847,-20.40466,195.5711,208.6324,15,0.581457,-0.8623017,-0.3123425,-0.1645537,0.07302434,0.2009601,0.320259,-0.3217199,-0.117389,-0.2742042,-0.01111364,-0.8379064,5,0
2013-11-05 23:45:31.321,167,16.7,40.68832,-73.95116,13.92017,9.52,171.8039,8,10,1383713130,0.1008301,-0.03341675,-0.6043854,25.39301,-48.48715,-19.6934,197.754,210.8153,15,-0.06633588,0.05944522,0.008722119,-0.1820913,0.02088002,0.2304532,-0.06413403,-0.002517559,0.06803796,0.133009,0.1472267,0.437691,5,0
2013-11-05 23:45:31.410,168,16.8,40.68832,-73.95116,13.92017,9.52,171.8039,8,10,1383713130,-0.01417542,-0.2951508,-1.417511,25.21838,-47.75616,-19.38856,197.1046,210.1658,15,0.6366393,-0.2372512,-0.2213103,-0.1732514,0.0771758,0.1918242,0.04792902,0.6977135,-0.04025961,-0.07531885,-0.03766735,-0.2168205,5,0
2013-11-05 23:45:31.527,169,16.9,40.68823,-73.95115,14.33188,10.73,171.8039,12,10,1383713131,0.1003265,-0.2487183,-1.132446,24.939,-48.03461,-18.64344,197.2701,210.3314,15,0.8308064,-0.6381125,-0.1037778,-0.1807057,0.07326794,0.2083643,0.7672119,-0.642894,-0.2023159,-0.05282025,-0.1018865,-0.4167103,5,0
2013-11-05 23:45:31.639,170,17,40.68823,-73.95115,14.33188,10.73,171.8039,12,10,1383713131,0.1016693,-0.3441925,-1.397736,21.86568,-47.06,-19.93049,195.1205,208.1818,15,-0.8203628,1.752233,-0.3784794,-0.1640158,0.05739637,0.1978029,-1.200693,1.302408,-0.2930573,-0.1561761,-0.2876458,-0.1304584,5,0
2013-11-05 23:45:31.739,171,17.1,40.68823,-73.95115,14.33188,10.73,171.8039,12,10,1383713131,0.5386047,-0.154892,-1.727356,21.51643,-48.03455,-20.54012,194.8992,207.9604,15,0.8253086,-0.4030287,-0.2164055,-0.1735176,0.1076406,0.1698601,-0.2741401,1.172991,-0.3440933,0.1516359,-0.07726296,-0.5803682,5,0
2013-11-05 23:45:31.808,172,17.2,40.68823,-73.95115,14.33188,10.73,171.8039,12,10,1383713131,0.1978149,-0.1629791,-0.4105225,21.79583,-48.1738,-20.26917,195.8875,208.9487,15,-0.3607334,0.1537472,-0.01301567,-0.1931956,0.0323486,0.2505171,0.1228201,-0.3255385,-0.2062505,0.166329,0.04447479,0.4227453,5,0
2013-11-05 23:45:31.908,173,17.3,40.68823,-73.95115,14.33188,10.73,171.8039,12,10,1383713131,-0.0647583,-0.3561859,-1.92572,21.20212,-48.90475,-20.09982,194.0216,207.0828,15,0.881412,-0.9895127,-0.2208996,-0.1661932,0.1066556,0.2112888,0.688502,-0.1177154,0.05853682,-0.03165266,-0.07629058,-1.002282,5,0
2013-11-05 23:45:32.039,174,17.4,40.68823,-73.95115,14.33188,10.73,171.8039,12,10,1383713131,0.09094238,-0.2621002,-0.737915,18.967,-49.11359,-17.45802,193.9147,206.976,15,0.406539,-0.3154615,0.4261175,-0.173342,0.006225913,0.2685406,0.531803,-0.6291535,0.3391625,0.1070191,-0.01810735,0.03069928,5,0
2013-11-05 23:45:32.109,175,17.5,40.68823,-73.95115,14.33188,10.73,171.8039,12,10,1383713131,-0.03103638,-0.240036,-1.307007,17.98911,-47.6517,-18.40636,192.8375,205.8987,15,-0.1608203,0.1830518,-0.3953979,-0.1468966,0.02082342,0.2157314,-0.5312833,0.7351796,-0.3704435,-0.395202,-0.0690344,-0.237976,5,0
2013-11-05 23:45:32.208,176,17.6,40.68823,-73.95115,14.33188,10.73,171.8039,12,10,1383713131,0.4561462,0.02586365,-0.8068237,18.19866,-46.95554,-20.30305,191.913,204.9742,15,0.5273914,-0.5661241,0.2549883,-0.1822614,0.006708354,0.2192446,0.4484171,-0.5898451,0.07948489,0.4613325,0.1911557,0.05515688,5,0
2013-11-05 23:45:32.339,177,17.7,40.68823,-73.95115,14.33188,10.73,171.8039,12,10,1383713131,-0.2494965,-0.1454926,-0.888092,17.70972,-46.18979,-19.21925,191.8806,204.9418,15,0.1416818,0.4211872,0.09017251,-0.1461604,-0.03413395,0.2331138,-0.3587121,0.4442328,0.345998,0.004395644,0.1610314,0.3443638,5,0
2013-11-05 23:45:32.409,178,17.8,40.68823,-73.95115,14.33188,10.73,171.8039,12,10,1383713131,0.1928864,-0.2176056,-0.5587311,17.46525,-46.43344,-18.44025,192.2431,205.3043,15,-0.6951825,0.8032594,0.1077797,-0.1598203,-0.03855655,0.2724942,-0.1407798,0.1760336,-0.03299129,0.1460877,0.05438221,0.3695371,5,0
2013-11-05 23:45:32.508,179,17.9,40.68814,-73.95113,14.66794,11.29,171.8039,12,10,1383713132,0.2178192,-0.3179169,-1.464462,17.81449,-46.5726,-20.81109,190.3271,203.3884,15,0.5874009,-0.962737,-0.3828952,-0.1557432,0.05096013,0.2188364,0.4425187,-0.738398,-0.3911671,-0.0651041,-0.1401906,-0.9202886,5,0
2013-11-05 23:45:32.638,180,18,40.68814,-73.95113,14.66794,11.29,171.8039,12,10,1383713132,0.01982117,-0.282547,-0.7266998,17.50018,-44.72791,-20.23531,192.9825,206.0437,15,0.01116956,-0.1869851,0.5065308,-0.149803,-0.02890597,0.261362,0.3319736,-0.6907595,0.486694,0.2118651,-0.01894722,0.09551819,5,0
2013-11-05 23:45:32.709,181,18.1,40.68814,-73.95113,14.66794,11.29,171.8039,12,10,1383713132,0.0382843,-0.1690979,-0.8008118,16.3826,-44.44943,-19.96436,192.7851,205.8464,15,-0.620822,0.4293777,-0.2430569,-0.1349375,-0.04944376,0.2351471,-0.3181653,0.05549161,-0.2259646,-0.1749285,0.02247584,0.06401926,5,0
2013-11-05 23:45:32.808,182,18.2,40.68814,-73.95113,14.66794,11.29,171.8039,12,10,1383713132,0.2205505,-0.2247772,-0.8533325,16.66199,-43.96213,-21.52235,192.4619,205.5231,15,0.3709949,-0.3253158,0.01851163,-0.1526072,-0.01605653,0.2111638,0.4055023,-0.4644201,-0.01650928,0.2792948,-0.01246313,-0.09544326,5,0
2013-11-05 23:45:32.938,183,18.3,40.68814,-73.95113,14.66794,11.29,171.8039,12,10,1383713132,-0.03547668,-0.1231537,-0.7270508,16.52229,-43.96213,-21.11591,192.9725,206.0338,15,-0.01971858,0.2824634,0.1582701,-0.1444721,-0.03847688,0.2364994,0.3431434,-0.1854365,0.1630423,0.0565464,0.1073021,0.192636,5,0
2013-11-05 23:45:33.009,184,18.4,40.68814,-73.95113,14.66794,11.29,171.8039,12,10,1383713132,0.1615143,-0.2778625,-1.026978,17.01123,-44.17099,-21.52235,192.3743,205.4356,15,0.4892467,-0.4464486,-0.1667038,-0.1545828,0.009855342,0.233193,0.4239442,-0.3739862,-0.3574839,-0.1598112,-0.09909969,-0.3145435,5,0
2013-11-05 23:45:33.108,185,18.5,40.68814,-73.95113,14.66794,11.29,171.8039,12,10,1383713132,-0.3485413,-0.2957458,-1.621353,17.01125,-44.65829,-21.18365,192.3236,205.3849,15,0.4277005,-0.1656811,-0.2967038,-0.1476084,0.01864214,0.225599,-0.2084184,0.6682983,-0.1015034,-0.2779496,-0.05560666,-0.2432978,5,0
2013-11-05 23:45:33.238,186,18.6,40.68814,-73.95113,14.66794,11.29,171.8039,12,10,1383713132,0.2595825,-0.2854462,-0.6756592,16.17307,-45.42401,-21.86103,191.5071,204.5683,15,-0.7083052,0.7111868,0.1851954,-0.1628915,-0.004397023,0.2504361,-0.04462575,-0.2631528,0.03773727,0.2043331,-0.026847,0.105468,5,0
2013-11-05 23:45:33.309,187,18.7,40.68814,-73.95113,14.66794,11.29,171.8039,12,10,1383713132,0.2018127,-0.3088837,-0.6750183,14.95074,-47.05994,-21.82716,190.054,203.1152,15,-0.1050596,-0.06918839,0.1534684,-0.1628218,-0.007440571,0.2510346,0.3155841,-0.5566419,0.008940634,0.1664785,-0.00308904,0.1341259,5,0
2013-11-05 23:45:33.408,188,18.8,40.68814,-73.95113,14.66794,11.29,171.8039,12,10,1383713132,0.1585388,-0.1938629,-0.9715118,14.53165,-48.10413,-21.75942,188.4217,201.4829,15,0.7837837,-0.9318968,-0.3189817,-0.1642331,0.0104671,0.2273396,0.8507441,-1.035307,-0.361682,-0.047368,-0.01062134,-0.4862636,5,0
2013-11-05 23:45:33.539,189,18.9,40.68805,-73.95111,13.99631,11.5,171.8039,8,10,1383713133,0.1385345,-0.147583,-0.5979919,15.29999,-48.31293,-22.30134,189.9472,203.0084,15,-1.805172,1.751995,0.2437679,-0.1737317,-0.02020721,0.2171733,-1.725802,0.9931629,0.2118549,0.2550828,0.05078204,0.6365436,5,0
2013-11-05 23:45:33.609,190,19,40.68805,-73.95111,13.99631,11.5,171.8039,8,10,1383713133,0.06401062,-0.097229,-0.5971832,15.71909,-48.1041,-23.18194,190.5796,203.6409,15,0.06917295,0.07567665,0.2842131,-0.1767387,-0.02483779,0.225676,0.05942414,-0.1085959,0.3128802,0.1980641,0.1624707,0.3258744,5,0
2013-11-05 23:45:33.709,191,19.1,40.68805,-73.95111,13.99631,11.5,171.8039,8,10,1383713133,-0.1352692,-0.07119751,-0.7311859,15.82385,-49.39194,-21.52235,190.5058,203.5671,15,-0.09989038,0.3869019,0.05252127,-0.1637417,-0.0432789,0.2436218,0.1090277,-0.0169895,-0.02820059,-0.1552015,0.13514,0.2193178,5,0
2013-11-05 23:45:33.839,192,19.2,40.68805,-73.95111,13.99631,11.5,171.8039,8,10,1383713133,-0.2386627,-0.2647858,-1.686691,17.3256,-50.54053,-21.01429,189.0878,202.149,15,-0.2408883,0.9068066,-0.1588038,-0.1569697,0.0182851,0.2159872,-0.5085291,1.283565,0.07896065,-0.2771213,-0.03610015,-0.5459657,5,0
2013-11-05 23:45:33.909,193,19.3,40.68805,-73.95111,13.99631,11.5,171.8039,8,10,1383713133,0.06718445,-0.2931824,-0.7245941,17.98917,-51.06265,-20.98042,191.4213,204.4826,15,-0.7521939,1.680534,0.02679992,-0.1593955,-0.01928358,0.2433589,-0.851395,0.9398495,0.4702798,0.3557351,-0.116641,0.2368941,5,0
2013-11-05 23:45:34.009,194,19.4,40.68805,-73.95111,13.99631,11.5,171.8039,8,10,1383713133,0.1791382,-0.2855225,-0.689743,18.37333,-51.58475,-20.13367,190.4391,203.5004,15,0.2503054,0.1728732,-0.1045448,-0.1763134,-0.002906931,0.2683607,0.8120311,-0.5891629,-0.09324493,0.211299,0.01766887,0.03620901,5,0
2013-11-05 23:45:34.139,195,19.5,40.68805,-73.95111,13.99631,11.5,171.8039,8,10,1383713133,0.2741547,-0.1849518,-0.9019165,18.05902,-49.04379,-18.06767,189.5573,202.6186,15,-0.7328631,1.702027,0.315078,-0.1804038,0.03395605,0.239067,-1.215214,1.38719,0.2250967,0.2374628,0.07247432,0.2426668,5,0
2013-11-05 23:45:34.208,196,19.6,40.68805,-73.95111,13.99631,11.5,171.8039,8,10,1383713133,0.07633972,-0.108902,-0.7520752,18.37334,-47.75595,-18.30476,191.1407,204.202,15,0.532792,-0.4305351,0.4248424,-0.1829715,0.01667473,0.2565584,0.6523866,-0.7876658,0.2883134,0.1807712,0.1452631,-0.01408188,5,0
2013-11-05 23:45:34.309,197,19.7,40.68805,-73.95111,13.99631,11.5,171.8039,8,10,1383713133,-0.1735077,-0.1156921,-0.5635986,18.26857,-46.53769,-18.3386,193.3354,206.3967,15,-0.5970922,0.3569853,0.2344698,-0.1532991,-0.04963974,0.2888406,-0.117379,-0.4124605,0.216221,-0.03988426,0.1937613,0.4695705,5,0
2013-11-05 23:45:34.438,198,19.8,40.68805,-73.95111,13.99631,11.5,171.8039,8,10,1383713133,-0.002578735,-0.1682587,-1.199493,18.96707,-44.93652,-20.9804,192.7543,205.8156,15,-0.4539273,1.062226,-0.4495203,-0.1545089,0.01530419,0.2289219,-0.6077967,1.042624,-0.3935789,-0.2010005,0.04865921,-0.1589539,5,0
2013-11-05 23:45:34.509,199,19.9,40.68794,-73.95109,14.31934,11.81,171.8039,8,10,1383713134,0.1889191,-0.1170959,-0.7635345,21.30698,-46.64206,-22.84321,193.9458,207.007,15,0.5581594,-0.5710856,0.0622181,-0.182315,0.03452766,0.2400138,0.8010604,-0.9061545,-0.05861751,0.2887496,0.0312036,-0.08719712,5,0
2013-11-05 23:45:34.609,200,20,40.68794,-73.95109,14.31934,11.81,171.8039,8,10,1383713134,-0.03094482,-0.1681213,-1.306396,21.44669,-50.05316,-23.24967,193.535,206.5963,15,-0.0989596,0.4842799,-0.1690774,-0.1725132,0.0432306,0.2297552,-0.3704651,0.6266592,-0.1095546,-0.1459938,0.08966238,-0.03187202,5,0
2013-11-05 23:45:34.738,201,20.1,40.68794,-73.95109,14.31934,11.81,171.8039,8,10,1383713134,0.3402557,-0.1417694,-0.9377441,19.8751,-52.87253,-22.80935,190.5547,203.616,15,0.221656,-0.2912073,0.09346896,-0.1853101,0.04805874,0.2315941,0.2332873,-0.4294655,-0.02482186,0.31602,-0.004479417,-0.07877114,5,0
2013-11-05 23:45:34.809,202,20.2,40.68794,-73.95109,14.31934,11.81,171.8039,8,10,1383713134,-0.1141052,-0.1363831,-1.464722,18.89722,-53.08139,-21.3191,189.5706,202.6319,15,0.2111541,0.1328446,-0.4026444,-0.1726084,0.04061535,0.226916,-0.3736229,0.7915623,-0.1983879,-0.3020602,0.04383653,-0.1568251,5,0
2013-11-05 23:45:34.908,203,20.3,40.68794,-73.95109,14.31934,11.81,171.8039,8,10,1383713134,0.1895447,-0.1926727,-0.6721344,19.28139,-51.65427,-20.06593,191.1645,204.2258,15,-0.2955201,0.4039203,0.1426003,-0.1980065,0.01465393,0.2526512,-0.1479146,0.1193865,0.1697953,0.3078943,0.02849049,0.2669468,5,0
2013-11-05 23:45:35.038,204,20.4,40.68794,-73.95109,14.31934,11.81,171.8039,8,10,1383713134,-0.101944,-0.2090302,-1.194107,18.26859,-50.22717,-20.64173,190.1912,203.2524,15,-0.04204998,0.1170086,-0.05618604,-0.1880085,0.02916397,0.234844,-0.07574842,0.1346576,0.06881933,-0.02748966,0.03870627,-0.1546482,5,0
2013-11-05 23:45:35.109,205,20.5,40.68794,-73.95109,14.31934,11.81,171.8039,8,10,1383713134,-0.1280212,-0.2630463,-0.9698639,18.96708,-49.87912,-20.70947,190.322,203.3832,15,0.05171007,-0.06526715,-0.1565907,-0.1856459,0.01405913,0.2307827,0.06215404,-0.2637554,-0.03599884,-0.04104495,-0.002309047,-0.1133242,5,0
2013-11-05 23:45:35.208,206,20.6,40.68794,-73.95109,14.31934,11.81,171.8039,8,10,1383713134,-0.001190186,-0.01811218,-0.7266235,19.5957,-47.5123,-19.76112,192.4623,205.5236,15,-0.2462657,0.6333189,-0.07212266,-0.193206,0.008238622,0.2257306,-0.5725093,0.5439453,0.01190118,0.0466122,0.1888454,0.3459509,5,0
2013-11-05 23:45:35.338,207,20.7,40.68794,-73.95109,14.31934,11.81,171.8039,8,10,1383713134,0.1048737,-0.2129669,-1.008377,19.97986,-46.08527,-20.13367,192.4297,205.4909,15,0.09349506,0.2555876,-0.156522,-0.1962261,0.0301463,0.216077,-0.08319923,0.2486067,-0.07200206,0.03994089,0.1208478,-0.03038109,5,0
2013-11-05 23:45:35.409,208,20.8,40.68794,-73.95109,14.31934,11.81,171.8039,8,10,1383713134,-0.1860809,-0.2475891,-1.377594,20.04971,-44.90182,-21.48847,192.3342,205.3955,15,0.2481145,-0.1688348,-0.06986483,-0.1987808,0.09015271,0.2056394,0.1265225,0.05857599,0.1815056,-0.02314657,0.06054688,-0.1662802,5,0
2013-11-05 23:45:35.509,209,20.9,40.68785,-73.95107,14.51144,11.6,171.8039,8,10,1383713135,0.1118011,-0.197937,-0.8441925,20.3291,-43.64877,-23.31739,193.7408,206.802,15,0.2037252,-0.2033595,0.1205909,-0.2069192,0.06357098,0.2267279,0.4322629,-0.5366143,0.05192405,0.03805802,0.03530675,0.009838177,5,0
2013-11-05 23:45:35.639,210,21,40.68785,-73.95107,14.51144,11.6,171.8039,8,10,1383713135,0.05279541,-0.1628723,-1.100327,20.95773,-44.76257,-23.31739,193.3822,206.4435,15,-0.3787649,0.9099313,-0.09994365,-0.2030639,0.07305575,0.2089286,-0.7114787,0.8250733,-0.115403,-0.1281509,0.02061377,0.1513951,5,0
2013-11-05 23:45:35.708,211,21.1,40.68785,-73.95107,14.51144,11.6,171.8039,8,10,1383713135,0.1656036,-0.1999512,-0.9760742,21.13235,-45.0062,-25.11248,192.7497,205.811,15,0.5065956,-0.7236296,0.1287649,-0.2069358,0.09878041,0.2033335,0.5278747,-0.7962134,0.02386717,0.155838,-0.008895405,-0.2042391,5,0
2013-11-05 23:45:35.808,212,21.2,40.68785,-73.95107,14.51144,11.6,171.8039,8,10,1383713135,-0.2227936,-0.08235168,-0.817215,20.92281,-46.25925,-24.0964,193.4703,206.5316,15,0.07749346,-0.08974028,-0.1130839,-0.1908812,0.05689532,0.2247625,0.0596049,-0.1784961,-0.05246527,-0.320861,0.07288095,0.1415283,5,0
2013-11-05 23:45:35.939,213,21.3,40.68785,-73.95107,14.51144,11.6,171.8039,8,10,1383713135,0.06616211,-0.1880035,-0.6228485,21.09743,-47.54712,-22.97872,193.3951,206.4563,15,-0.5352003,0.2994906,-0.05892484,-0.1979789,0.04287776,0.2289602,-0.2400819,-0.07414462,-0.0481127,-0.005109625,0.09450342,0.2906042,5,0
2013-11-05 23:45:36.009,214,21.4,40.68785,-73.95107,14.51144,11.6,171.8039,8,10,1383713135,0.2567902,-0.1088867,-0.7888031,22.38963,-46.46814,-22.80936,192.677,205.7382,15,-0.02237002,0.002462625,-0.008638229,-0.210329,0.08631668,0.1987276,0.4222583,-0.8260341,-0.2442171,0.146551,-0.09008396,0.03018144,5,0
2013-11-05 23:45:36.109,215,21.5,40.68785,-73.95107,14.51144,11.6,171.8039,8,10,1383713135,-0.2424927,-0.3344421,-1.146133,24.41524,-46.60736,-21.79328,195.3512,208.4125,15,0.5297065,-0.4158097,0.01083693,-0.1935181,0.07811021,0.2002057,0.4397356,-0.4402446,0.2666519,-0.09871951,0.1264222,-0.1300029,5,0
2013-11-05 23:45:36.239,216,21.6,40.68785,-73.95107,14.51144,11.6,171.8039,8,10,1383713135,0.4141541,-0.008728027,-0.8518066,24.65971,-50.05319,-21.28522,193.744,206.8053,15,0.4262041,-0.2183435,-0.03049506,-0.2116732,0.07412565,0.2098393,-0.05697792,0.1565198,-0.4124471,-0.004897885,0.09506729,0.3063264,5,0
2013-11-05 23:45:36.309,217,21.7,40.68785,-73.95107,14.51144,11.6,171.8039,8,10,1383713135,0.3284302,-0.1568909,-1.472061,24.31046,-50.40128,-21.08202,191.6419,204.7032,15,1.386373,-1.801596,-0.6226659,-0.1982486,0.1433354,0.1842365,0.6969315,-0.265919,-0.5987253,-0.2859659,-0.04541113,-1.077832,5,0
2013-11-05 23:45:36.408,218,21.8,40.68785,-73.95107,14.51144,11.6,171.8039,8,10,1383713135,-0.185379,-0.1325531,-1.414291,25.00895,-50.95819,-20.06594,193.7734,206.8347,15,0.3878987,-0.1240495,0.03396569,-0.2044138,0.08117867,0.2137419,-0.6910546,0.865359,0.415224,0.1464027,0.1177883,0.4966698,5,0
2013-11-05 23:45:36.539,219,21.9,40.68775,-73.95106,15.08206,11.36,171.8039,8,10,1383713136,0.01405334,-0.2978821,-0.6959534,22.66904,-49.53107,-19.5579,192.4181,205.4793,15,-0.3126999,0.292613,-0.09691083,-0.2015437,0.04909489,0.2383796,0.1867811,-0.3784444,-0.00747251,-0.07258976,-0.1698622,0.03732349,5,0
2013-11-05 23:45:36.609,220,22,40.68775,-73.95106,15.08206,11.36,171.8039,8,10,1383713136,0.1268921,-0.2412262,-1.242538,22.11026,-48.27802,-19.82887,192.1792,205.2405,15,-0.8381636,1.469086,-0.06174512,-0.2027929,0.07228155,0.2040218,-0.9006174,0.9763333,-0.07550631,0.001392246,-0.07326959,0.1253995,5,0
2013-11-05 23:45:36.709,221,22.1,40.68775,-73.95106,15.08206,11.36,171.8039,8,10,1383713136,0.1218719,-0.177124,-0.4327393,21.62133,-47.09457,-20.43853,192.5725,205.6338,15,-0.273361,-0.02154284,0.01586472,-0.2165606,0.04278556,0.240613,0.5849856,-0.9806023,-0.03414676,0.1868685,-0.02104038,0.164212,5,0
2013-11-05 23:45:36.838,222,22.2,40.68775,-73.95106,15.08206,11.36,171.8039,8,10,1383713136,-0.09518433,-0.1796265,-1.283829,21.27209,-48.34763,-20.91268,192.1597,205.2209,15,0.3941066,-0.2658383,0.06299788,-0.2133108,0.04498119,0.2147861,-0.1196425,0.114075,0.08639287,-0.004595637,0.1851691,0.1084343,5,0
2013-11-05 23:45:36.909,223,22.3,40.68775,-73.95106,15.08206,11.36,171.8039,8,10,1383713136,0.09536743,-0.1490173,-1.746353,21.20225,-49.25262,-21.11588,192.2634,205.3247,15,0.970168,-1.033258,0.1208226,-0.2122335,0.05757081,0.1675528,0.305336,0.5537601,0.2725389,0.2056722,0.06241506,-0.4565251,5,0
2013-11-05 23:45:37.009,224,22.4,40.68775,-73.95106,15.08206,11.36,171.8039,8,10,1383713136,0.1925812,-0.1452789,-1.06311,19.84021,-49.6355,-20.20141,191.188,204.2493,15,0.1284482,0.2162561,0.08217743,-0.2119132,0.02235162,0.1849935,-0.2627065,0.4482062,-0.02365136,-0.08178287,-0.05359345,0.164653,5,0
2013-11-05 23:45:37.139,225,22.5,40.68775,-73.95106,15.08206,11.36,171.8039,8,10,1383713136,0.02476501,-0.3091125,-0.8064423,20.01483,-49.04379,-19.55791,191.6799,204.7412,15,0.3125768,-0.2279144,-0.02015427,-0.2106673,0.01197696,0.1955112,0.2696509,-0.402429,-0.06362524,0.051194,-0.1269294,0.1315892,5,0
2013-11-05 23:45:37.208,226,22.6,40.68775,-73.95106,15.08206,11.36,171.8039,8,10,1383713136,-0.1024475,-0.2177429,-1.57196,19.45605,-48.27805,-19.82887,191.0466,204.1078,15,-0.06365967,0.1251952,-0.1369477,-0.2037381,0.0459405,0.1571513,-0.2517814,0.5353934,0.1053178,-0.08861709,-0.04733693,-0.4730665,5,0
2013-11-05 23:45:37.308,227,22.7,40.68775,-73.95106,15.08206,11.36,171.8039,8,10,1383713136,0.1702423,-0.1548157,-0.5544739,19.49097,-47.4079,-20.13367,191.0824,204.1437,15,0.07107045,-0.1836298,0.2713732,-0.2163315,0.002943359,0.177772,0.5217437,-0.8658776,0.1322423,0.2285789,0.06633302,0.1275006,5,0
2013-11-05 23:45:37.441,228,22.8,40.68767,-73.95104,16.42685,11.49,171.8039,6,10,1383713137,-0.1935883,-0.1444855,-0.7983246,18.96712,-47.58191,-20.0998,191.1645,204.2257,15,0.2484274,-0.03410897,-0.2406137,-0.206714,-0.001787549,0.173233,0.1218169,-0.05354206,-0.1873539,-0.2699067,-0.03730318,0.1631012,5,0
2013-11-05 23:45:37.508,229,22.9,40.68767,-73.95104,16.42685,11.49,171.8039,6,10,1383713137,0.07107544,-0.2865143,-1.494278,19.31636,-48.20844,-21.45458,188.8182,201.8794,15,0.8583922,-1.136073,-0.3745006,-0.209492,0.103532,0.1409378,0.3372754,0.7264038,0.05432539,-0.007870489,0.08821034,-0.8469277,5,0
2013-11-05 23:45:37.608,230,23,40.68767,-73.95104,16.42685,11.49,171.8039,6,10,1383713137,-0.2188721,-0.2041168,-0.8168945,19.10681,-47.86038,-20.0998,190.9574,204.0186,15,-0.1119694,0.01629029,0.2004529,-0.1998972,0.01321636,0.1832325,-0.4248993,0.2627998,0.4772142,-0.01957128,-0.1114313,0.3789412,5,0
2013-11-05 23:45:37.739,231,23.1,40.68767,-73.95104,16.42685,11.49,171.8039,6,10,1383713137,-0.2505188,-0.3017578,-0.9513702,18.54803,-47.5123,-19.76112,190.0884,203.1496,15,-1.163933,1.540643,-0.1790307,-0.1897988,0.01798224,0.1544902,-1.128039,0.9793998,-0.05616177,-0.2723143,-0.05696953,0.2465058,5,0
2013-11-05 23:45:37.809,232,23.2,40.68767,-73.95104,16.42685,11.49,171.8039,6,10,1383713137,0.4549408,-0.01025391,-0.2707367,20.6784,-46.5029,-20.81106,193.129,206.1903,15,-1.089573,1.08129,0.4189301,-0.2514274,0.01903729,0.1617566,0.3257345,-0.6900047,-0.2393991,0.4902303,-0.05754527,0.3059351,5,0
2013-11-05 23:45:37.909,233,23.3,40.68767,-73.95104,16.42685,11.49,171.8039,6,10,1383713137,-0.1162109,-0.1179199,-0.7896118,21.83087,-44.72778,-20.23528,193.6653,206.7265,15,-0.005823002,0.4204293,0.1167543,-0.2351837,0.0462443,0.1472775,0.5132828,-0.4726952,0.03278647,-0.1517607,0.1180133,-0.03744172,5,0
2013-11-05 23:45:38.039,234,23.4,40.68767,-73.95104,16.42685,11.49,171.8039,6,10,1383713137,-0.0403595,0.004074097,-0.9700775,22.28489,-45.73718,-19.86271,194.8699,207.9311,15,0.3155414,0.3236734,-0.04930151,-0.2405575,0.06063937,0.1571582,0.2758063,0.1746493,-0.1637245,-0.3032636,0.09045681,-0.06257071,5,0
2013-11-05 23:45:38.108,235,23.5,40.68767,-73.95104,16.42685,11.49,171.8039,6,10,1383713137,-0.00328064,-0.4180145,-1.547394,22.1452,-47.61679,-19.99818,193.377,206.4382,15,0.4694112,-0.4654867,-0.05842469,-0.2211947,0.1123018,0.1783053,0.2369633,0.1886023,0.0824976,-0.2072283,-0.2001405,-0.7324113,5,0
2013-11-05 23:45:38.208,236,23.6,40.68767,-73.95104,16.42685,11.49,171.8039,6,10,1383713137,0.1310577,-0.2515411,-1.549133,20.29423,-49.94885,-19.35465,191.4066,204.4678,15,-0.53198,1.167504,0.1794206,-0.2107419,0.1036989,0.1840974,-0.6941628,1.085638,0.3026133,0.2627532,-0.1511845,0.03336273,5,0
2013-11-05 23:45:38.339,237,23.7,40.68767,-73.95104,16.42685,11.49,171.8039,6,10,1383713137,0.3664551,-0.526947,-0.7902832,18.40834,-49.53119,-19.69332,189.2511,202.3124,15,-0.3060838,-0.1184124,-0.2895301,-0.2235662,0.09741887,0.1964098,0.4292629,-0.9190206,-0.3110917,0.2721284,-0.1942549,-0.1519438,5,0
2013-11-05 23:45:38.409,238,23.8,40.68767,-73.95104,16.42685,11.49,171.8039,6,10,1383713137,0.07241821,-0.2304993,-0.9532928,18.33849,-48.06931,-19.21915,189.0908,202.152,15,0.3441997,-0.53329,0.1125079,-0.2245974,0.09027479,0.1679936,0.01656992,-0.4930199,0.1674622,0.1268762,-0.02617009,0.05553121,5,0
2013-11-05 23:45:38.509,239,23.9,40.68754,-73.95101,16.30899,11.6,171.0561,6,10,1383713138,0.02290344,0.001708984,-0.3403778,17.67493,-45.94608,-19.11755,190.1131,203.1743,15,-0.4233947,0.2183651,0.2343619,-0.2201094,0.02305027,0.2110917,0.1999276,-0.4317292,0.1604593,0.02916015,0.191812,0.5503732,5,0
2013-11-05 23:45:38.639,240,24,40.68754,-73.95101,16.30899,11.6,171.0561,6,10,1383713138,-0.2829742,-0.01052856,-0.8716888,16.59228,-44.51901,-17.99987,190.2293,203.2905,15,0.05545234,0.09820034,-0.07011251,-0.2039994,0.02695762,0.1873584,-0.06349093,0.005401311,0.09524347,-0.21235,0.1744386,0.1700852,5,0
2013-11-05 23:45:38.709,241,24.1,40.68754,-73.95101,16.30899,11.6,171.0561,6,10,1383713138,-0.01701355,-0.1520386,-0.8975525,15.92871,-45.04111,-18.3047,189.4568,202.5181,15,-0.1634054,0.3746399,0.0440628,-0.2097786,0.03569736,0.1881742,-0.06689249,0.1568566,0.03384983,-0.07613643,0.04912614,0.1011826,5,0
2013-11-05 23:45:38.809,242,24.2,40.68754,-73.95101,16.30899,11.6,171.0561,6,10,1383713138,0.2047119,-0.2967072,-1.503357,14.98577,-46.53778,-19.35462,185.062,198.1232,15,0.1612824,0.3145971,0.02705479,-0.2021949,0.09204863,0.1643292,-0.1520405,0.7719645,0.06569339,0.02687331,-0.08366285,-0.4378294,5,0
2013-11-05 23:45:38.939,243,24.3,40.68754,-73.95101,16.30899,11.6,171.0561,6,10,1383713138,0.354248,-0.3229523,-1.049164,16.06842,-45.73721,-18.77885,185.9831,199.0444,15,0.2506799,-0.1158624,-0.08620573,-0.2106932,0.09828038,0.1736198,0.1299502,-0.03789924,-0.2533172,0.1257651,-0.2605245,-0.2242092,5,0
2013-11-05 23:45:39.009,244,24.4,40.68754,-73.95101,16.30899,11.6,171.0561,6,10,1383713138,0.2021027,-0.05300903,-0.9395752,16.45259,-45.98087,-18.67725,186.3264,199.3877,15,0.1336148,0.02430987,-0.0154253,-0.2205179,0.1016039,0.1806557,0.1081056,0.08334915,-0.216346,-0.107942,0.07919555,-0.09133929,5,0
2013-11-05 23:45:39.109,245,24.5,40.68754,-73.95101,16.30899,11.6,171.0561,6,10,1383713138,0.1875916,-0.1231537,-1.113586,16.13828,-44.69299,-19.1853,185.4822,198.5435,15,0.605957,-0.6120988,0.03360536,-0.2175178,0.1155981,0.1718443,0.2507572,-0.1672796,0.023936,0.05951478,-0.007756921,-0.1493106,5,0
2013-11-05 23:45:39.239,246,24.6,40.68754,-73.95101,16.30899,11.6,171.0561,6,10,1383713138,-0.06697083,-0.1063385,-0.6247101,15.09055,-43.43994,-19.18528,185.6722,198.7334,15,-0.4279964,0.5098555,0.2607807,-0.2072987,0.07647636,0.2024158,-0.2683631,0.1936057,0.3165707,-0.006879353,0.07888975,0.3541467,5,0
2013-11-05 23:45:39.308,247,24.7,40.68754,-73.95101,16.30899,11.6,171.0561,6,10,1383713138,0.3119354,-0.1704559,-0.8456268,15.09057,-43.99683,-19.79493,184.667,197.7282,15,0.6152096,-0.5354613,-0.1456858,-0.2205911,0.114107,0.1866899,0.5207754,-0.4502007,-0.3228509,0.1041834,-0.0363928,-0.1561972,5,0
2013-11-05 23:45:39.409,248,24.8,40.68754,-73.95101,16.30899,11.6,171.0561,6,10,1383713138,-0.004837036,-0.1507568,-1.538406,15.61443,-45.56314,-18.74497,185.554,198.6152,15,-0.6857398,1.582076,-0.1023812,-0.2143953,0.1146873,0.1823538,-1.044432,1.309167,-0.002801955,-0.1129964,-0.0296995,0.3485564,5,0
2013-11-05 23:45:39.539,249,24.9,40.68745,-73.951,16.13623,11.69,171.0561,6,10,1383713139,0.3177643,-0.304657,-0.5995636,13.69362,-44.97147,-17.15311,183.8036,196.8649,15,0.04452592,-0.3672987,0.1042292,-0.2316513,0.1014627,0.2113738,0.5322411,-0.8619656,-0.03562924,0.193797,-0.05313613,0.06564116,5,0
2013-11-05 23:45:39.609,250,25,40.68745,-73.951,16.13623,11.69,171.0561,6,10,1383713139,-0.1025085,-0.1934814,-0.6241913,13.65869,-44.17093,-15.76448,183.6456,196.7068,15,-0.925307,0.8783502,-0.203755,-0.2110352,0.08761525,0.1928315,-0.1231738,-0.2221717,0.0004503284,-0.1228229,0.004459086,-0.05487663,5,0
2013-11-05 23:45:39.708,251,25.1,40.68745,-73.951,16.13623,11.69,171.0561,6,10,1383713139,0.1442413,-0.2111359,-0.7701721,14.67148,-44.34494,-16.47572,183.9379,196.9991,15,0.4798023,-0.5052011,-0.08940791,-0.2175746,0.1076682,0.1776736,0.6193048,-0.9601294,-0.1101787,0.1898094,0.05119093,-0.1053348,5,0
2013-11-05 23:45:39.840,252,25.2,40.68745,-73.951,16.13623,11.69,171.0561,6,10,1383713139,0.2358856,-0.03514099,-1.064301,15.19534,-44.93671,-15.83221,184.4087,197.4699,15,0.2715391,0.4529113,0.07473522,-0.220389,0.1237173,0.1759811,-0.06549721,0.765361,0.02316963,-0.00362189,0.1136576,0.2525428,5,0
2013-11-05 23:45:39.908,253,25.3,40.68745,-73.951,16.13623,11.69,171.0561,6,10,1383713139,0.2101288,-0.1871796,-0.9432068,16.27799,-45.6676,-15.45965,185.221,198.2822,15,-0.07098763,0.03974049,0.21392,-0.2216937,0.1249768,0.2013662,0.06597769,-0.2425357,0.1652481,0.1343978,-0.002735431,-0.04164154,5,0
2013-11-05 23:45:40.009,254,25.4,40.68745,-73.951,16.13623,11.69,171.0561,6,10,1383713139,0.1483002,-0.2422943,-1.275742,15.92875,-45.04111,-15.25643,184.958,198.0192,15,0.1715715,-0.3767952,0.009373262,-0.211654,0.1319245,0.1799655,0.03476566,-0.1943603,0.1552385,0.1044385,-0.01389077,-0.2881269,5,0
2013-11-05 23:45:40.139,255,25.5,40.68745,-73.951,16.13623,11.69,171.0561,6,10,1383713139,0.06448364,-0.155838,-0.8056488,15.23028,-43.8577,-16.06929,185.2215,198.2827,15,-0.2291027,0.1407763,-0.06933753,-0.2133373,0.1022743,0.1827634,-0.2229633,-0.06784594,-0.03454616,-0.03093766,-0.05354291,0.08707824,5,0
2013-11-05 23:45:40.208,256,25.6,40.68745,-73.951,16.13623,11.69,171.0561,6,10,1383713139,0.2086945,-0.1608124,-1.035873,16.31292,-43.33557,-17.32246,185.7896,198.8508,15,0.3290575,-0.4088371,-0.1277742,-0.2171207,0.1335789,0.159604,0.2256131,0.07210188,-0.006603879,0.1011157,0.04576802,-0.2482352,5,0
2013-11-05 23:45:40.309,257,25.7,40.68745,-73.951,16.13623,11.69,171.0561,6,10,1383713139,0.1025696,-0.005203247,-0.7325287,16.80185,-42.91791,-17.32246,187.1305,200.1918,15,-0.4165322,0.8820568,0.1700306,-0.2249458,0.112358,0.1720894,-0.4576297,0.4562249,-0.004414095,-0.04595146,0.1452861,0.4034095,5,0
2013-11-05 23:45:40.440,258,25.8,40.68734,-73.95097,16.16745,11.7,171.0561,8,10,1383713140,-0.1532745,-0.2960052,-1.043472,15.92874,-41.35165,-16.88216,186.7375,199.7988,15,0.1017304,-0.3275528,-0.2354621,-0.2168543,0.1204445,0.1711496,0.2941623,-0.7432097,-0.0824986,-0.1407674,0.06051305,-0.452749,5,0
2013-11-05 23:45:40.509,259,25.9,40.68734,-73.95097,16.16745,11.7,171.0561,8,10,1383713140,-0.1697235,-0.04174805,-0.9571075,15.68428,-41.45605,-16.64508,186.3892,199.4505,15,-0.2199918,0.6233571,-0.07714725,-0.2175921,0.1053901,0.1683983,-0.2270098,0.1483293,0.1872885,-0.05086584,0.2197581,0.0992658,5,0
2013-11-05 23:45:40.608,260,26,40.68734,-73.95097,16.16745,11.7,171.0561,8,10,1383713140,0.4795685,-0.04351807,-0.7610016,15.89383,-42.01297,-17.32246,185.9691,199.0304,15,0.01976412,0.1408421,0.2257325,-0.2376072,0.1175367,0.1710668,0.2721898,-0.1119409,-0.01112961,0.2858279,0.09592338,0.1575753,5,0
2013-11-05 23:45:40.740,261,26.1,40.68734,-73.95097,16.16745,11.7,171.0561,8,10,1383713140,-0.1138,-0.1485138,-1.548935,17.46541,-43.5097,-16.81441,186.2245,199.2857,15,0.1428504,0.1384588,-0.3166664,-0.2196463,0.1386023,0.1680869,-0.06447797,0.6409538,0.06462626,-0.1735501,0.03936681,-0.4359474,5,0
2013-11-05 23:45:40.808,262,26.2,40.68734,-73.95097,16.16745,11.7,171.0561,8,10,1383713140,-0.009994507,-0.05613708,-1.738647,17.15109,-43.68372,-17.11924,186.6215,199.6827,15,0.1421332,0.4147604,0.04916808,-0.2186332,0.1313827,0.1641666,-0.4091209,0.8918471,0.3955953,0.2461072,0.04822638,0.214289,5,0
2013-11-05 23:45:40.909,263,26.3,40.68734,-73.95097,16.16745,11.7,171.0561,8,10,1383713140,0.1935425,-0.1859131,-0.7402802,17.39557,-44.76276,-18.10145,186.4704,199.5317,15,-0.09252088,-0.1284341,0.1585928,-0.2285632,0.09918739,0.1879377,0.0613235,-0.4851095,0.05917158,0.1486447,-0.01587974,0.181329,5,0
2013-11-05 23:45:41.039,264,26.4,40.68734,-73.95097,16.16745,11.7,171.0561,8,10,1383713140,-0.1547852,-0.08467102,-0.7238922,18.65283,-45.59808,-18.77886,188.6842,201.7455,15,0.02107759,-0.2425631,-0.2926636,-0.2180032,0.07782918,0.1856566,0.05066827,-0.369516,-0.01575788,-0.2210373,0.07489645,0.05794986,5,0
2013-11-05 23:45:41.109,265,26.5,40.68734,-73.95097,16.16745,11.7,171.0561,8,10,1383713140,0.06111145,-0.1765137,-1.552444,18.65283,-45.7373,-19.32075,188.0057,201.0669,15,0.3362784,-1.009372,-0.2253018,-0.2220879,0.1298308,0.1396738,0.1378367,0.1127051,0.1440077,0.1104419,0.1106556,-0.7291018,5,0
2013-11-05 23:45:41.208,266,26.6,40.68734,-73.95097,16.16745,11.7,171.0561,8,10,1383713140,0.03894043,-0.01951599,-0.5664062,17.25586,-45.11078,-18.44015,187.9143,200.9755,15,-0.1147165,-0.4898033,0.2008596,-0.2251574,0.03179711,0.1589445,0.02837028,-0.6529336,0.254995,0.03353513,0.05930764,0.1974823,5,0
2013-11-05 23:45:41.340,267,26.7,40.68734,-73.95097,16.16745,11.7,171.0561,8,10,1383713140,-0.1528015,0.1950989,-0.7919464,14.56673,-44.17099,-16.6451,186.3984,199.4597,15,-0.1910621,-0.08015262,0.1475642,-0.2108996,-0.009084859,0.1459491,-0.1935447,-0.3788359,0.1889315,-0.02673268,0.2759552,0.3103877,5,0
2013-11-05 23:45:41.409,268,26.8,40.68734,-73.95097,16.16745,11.7,171.0561,8,10,1383713140,0.1296692,-0.1447906,-0.9101105,13.06499,-43.57925,-16.88219,185.1847,198.246,15,-0.1131391,0.6610988,0.07405133,-0.2193781,0.00504767,0.1513713,0.1710396,-0.01798412,-0.01977071,0.1324002,0.1544713,0.02085549,5,0
2013-11-05 23:45:41.509,269,26.9,40.68724,-73.95095,17.48001,11.21,171.0561,8,10,1383713141,0.4164276,-0.05892944,-0.9743958,13.55393,-43.30081,-18.23696,185.2183,198.2796,15,-0.145158,0.3183631,0.3313534,-0.2254127,0.02530678,0.1524679,0.01743528,-0.2407444,0.03489961,0.2239519,0.05902812,-0.07276926,5,0
2013-11-05 23:45:41.639,270,27,40.68724,-73.95095,17.48001,11.21,171.0561,8,10,1383713141,0.0632782,-0.2213135,-1.123947,14.42704,-43.7533,-18.33857,185.1112,198.1725,15,-0.3028792,0.5426779,0.2217353,-0.2093697,0.01130116,0.156231,0.04669683,-0.3957664,0.1273011,0.0979218,0.02075435,-0.111043,5,0
2013-11-05 23:45:41.709,271,27.1,40.68724,-73.95095,17.48001,11.21,171.0561,8,10,1383713141,-0.06510925,-0.1027527,-0.8508148,14.2175,-43.26599,-18.27084,185.247,198.3083,15,-0.1438014,0.3210662,-0.029172,-0.1982086,0.005627619,0.1585155,-0.2897589,0.1602418,0.1029975,0.0406771,0.004699995,0.2020009,5,0
2013-11-05 23:45:41.809,272,27.2,40.68724,-73.95095,17.48001,11.21,171.0561,8,10,1383713141,0.3078461,0.06617737,-0.8010712,13.86826,-42.43063,-17.8644,185.3659,198.4271,15,-0.5720974,0.9467871,0.004981443,-0.2188343,0.01293694,0.1511075,-0.3980203,-0.01642617,-0.3572895,0.08369216,0.1792501,0.4162719,5,0
2013-11-05 23:45:41.940,273,27.3,40.68724,-73.95095,17.48001,11.21,171.0561,8,10,1383713141,0.1670074,-0.1008606,-1.028732,13.13486,-42.11737,-15.52743,184.0131,197.0744,15,0.4269684,-0.1364798,0.232784,-0.2116251,0.05425292,0.1447814,0.4432372,-0.1726184,0.2223098,0.1687226,0.1627545,-0.3365187,5,0
2013-11-05 23:45:42.009,274,27.4,40.68724,-73.95095,17.48001,11.21,171.0561,8,10,1383713141,-0.2754211,-0.05961609,-1.050735,12.26177,-41.3168,-14.47749,183.7095,196.7708,15,0.1500156,-0.4031634,-0.07003342,-0.1869318,0.009050964,0.1754699,0.2106879,-0.5569516,-0.1275083,-0.3182838,0.1060131,-0.2145077,5,0
2013-11-05 23:45:42.109,275,27.5,40.68724,-73.95095,17.48001,11.21,171.0561,8,10,1383713141,0.1015167,0.008499146,-1.043243,12.96026,-40.06375,-13.86785,185.3693,198.4306,15,-0.02770886,1.240801,0.02838743,-0.1863744,0.0009283127,0.1554988,-0.7489887,1.018202,-0.04624575,0.05746302,0.112957,0.276554,5,0
2013-11-05 23:45:42.240,276,27.6,40.68724,-73.95095,17.48001,11.21,171.0561,8,10,1383713141,0.1937408,-0.3281708,-0.8872986,14.28735,-40.13339,-16.1032,186.2009,199.2621,15,0.2698725,-0.3055469,-0.2124531,-0.1928199,0.03036259,0.1656832,0.2261938,-0.3587784,-0.2139779,0.06133587,-0.08206777,-0.05429457,5,0
2013-11-05 23:45:42.309,277,27.7,40.68724,-73.95095,17.48001,11.21,171.0561,8,10,1383713141,-0.1818695,0.07933044,-1.404495,15.33506,-40.48145,-16.44189,186.1772,199.2384,15,0.5320809,-0.7742406,-0.2615006,-0.1860363,0.06178132,0.1569795,0.4894874,-0.2296806,-0.008880521,-0.1206752,0.2826173,-0.6736805,5,0
2013-11-05 23:45:42.409,278,27.8,40.68724,-73.95095,17.48001,11.21,171.0561,8,10,1383713141,0.2036133,0.002212524,-0.8969879,16.55741,-41.07318,-19.11756,187.7945,200.8557,15,0.1296784,-0.08160672,0.02222515,-0.2015297,0.05166648,0.1627913,-0.02146331,0.04355382,-0.1137945,0.03384764,0.07883652,0.05745293,5,0
2013-11-05 23:45:42.539,279,27.9,40.68718,-73.95094,18.06879,9.81,171.0561,8,10,1383713142,0.03286743,-0.06491089,-1.014664,15.64939,-39.47202,-19.32075,187.0558,200.117,15,-0.08665367,0.4463389,0.08709416,-0.1967941,0.03985593,0.1656806,-0.1895827,0.2128585,0.0589931,0.002463559,0.05168814,0.2310675,5,0
2013-11-05 23:45:42.609,280,28,40.68718,-73.95094,18.06879,9.81,171.0561,8,10,1383713142,0.1272278,-0.2210236,-0.8187866,14.88106,-39.75049,-18.64338,185.7943,198.8556,15,-0.06909119,-0.2930324,0.09813722,-0.1905997,0.04366821,0.1745147,0.2225622,-0.849551,-0.1340585,-0.007865531,-0.02625994,-0.1286767,5,0
2013-11-05 23:45:42.709,281,28.1,40.68718,-73.95094,18.06879,9.81,171.0561,8,10,1383713142,0.07972717,-0.1786041,-0.7117157,14.25244,-40.86435,-17.83053,185.7038,198.7651,15,0.2164689,-0.3997945,-0.1013362,-0.1862603,0.0279972,0.1696721,0.2225254,-0.6806418,-0.1619179,-0.0643805,0.06635065,-0.1658996,5,0
2013-11-05 23:45:42.839,282,28.2,40.68718,-73.95094,18.06879,9.81,171.0561,8,10,1383713142,0.1924591,-0.04243469,-1.105087,14.95092,-41.90851,-18.57565,185.6916,198.7528,15,-0.2478015,0.9584847,0.01136184,-0.1941263,0.02255232,0.1580319,-0.6467674,0.6301409,-0.08381809,0.1362847,-0.03755612,0.3979018,5,0
2013-11-05 23:45:42.909,283,28.3,40.68718,-73.95094,18.06879,9.81,171.0561,8,10,1383713142,0.1483612,-0.1506958,-0.8000641,14.95092,-42.25656,-19.18531,185.1928,198.254,15,0.2129062,-0.3651585,0.1086546,-0.1917056,0.04661178,0.1634797,0.2884059,-0.5571281,0.07118092,0.1269695,-0.01286096,-0.02459759,5,0
2013-11-05 23:45:43.009,284,28.4,40.68718,-73.95094,18.06879,9.81,171.0561,8,10,1383713142,-0.1403809,-0.1698761,-1.03157,13.1698,-41.87369,-18.81275,184.0347,197.096,15,0.1026907,-0.2083013,-0.1140235,-0.1835174,0.06088855,0.1619432,0.2183003,-0.4033587,-0.05341838,-0.2129478,0.0675015,-0.2071738,5,0
2013-11-05 23:45:43.139,285,28.5,40.68718,-73.95094,18.06879,9.81,171.0561,8,10,1383713142,0.06182861,-0.09466553,-0.8856354,12.29669,-42.67426,-17.15316,183.5729,196.6342,15,-0.0520363,0.07706522,0.06829011,-0.1870087,0.04490183,0.162609,-0.04894625,-0.1429995,0.03858762,0.009446847,0.03757997,0.1195111,5,0
2013-11-05 23:45:43.208,286,28.6,40.68718,-73.95094,18.06879,9.81,171.0561,8,10,1383713142,0.02337646,-0.2875061,-1.036026,13.23965,-43.5444,-17.59345,183.9966,197.0578,15,-0.07455706,0.1516404,-0.05619403,-0.1804883,0.05152051,0.1640328,-0.07991455,0.01599522,-0.01155453,0.006047797,-0.0867476,-0.03081508,5,0
2013-11-05 23:45:43.308,287,28.7,40.68718,-73.95094,18.06879,9.81,171.0561,8,10,1383713142,0.06143188,-0.1271362,-1.16864,14.95093,-44.48416,-19.25304,185.6112,198.6725,15,0.01518108,0.3761164,0.1441798,-0.1819772,0.05855775,0.1805762,-0.1765896,0.1837897,0.1374021,0.1196429,0.04750106,0.1360154,5,0
2013-11-05 23:45:43.440,288,28.8,40.68718,-73.95094,18.06879,9.81,171.0561,8,10,1383713142,0.08213806,-0.2731934,-0.7712708,14.49692,-43.96207,-17.79667,185.2169,198.2781,15,-0.04944984,-0.1547941,0.1025985,-0.1808069,0.05672117,0.183211,-0.005761587,-0.4018769,-0.09495857,-0.1351182,-0.09865029,-0.02466519,5,0
2013-11-05 23:45:43.509,289,28.9,40.68709,-73.95092,18.62686,9.83,171.0561,8,10,1383713143,0.1734772,-0.1363678,-0.8440704,15.12555,-43.19632,-18.60952,185.3436,198.4048,15,0.15525,-0.1806571,-0.01731641,-0.1825695,0.07227799,0.1602698,0.3326255,-0.4636763,0.00733703,0.1641535,0.1768117,-0.1911897,5,0
2013-11-05 23:45:43.609,290,29,40.68709,-73.95092,18.62686,9.83,171.0561,8,10,1383713143,0.1829529,-0.01690674,-1.00415,15.71925,-43.37033,-19.04981,185.9398,199.0011,15,0.1873289,-0.1193797,0.1216143,-0.182967,0.07629392,0.1561499,0.270921,-0.1517813,0.1196499,0.103693,0.1202531,-0.174342,5,0
2013-11-05 23:45:43.740,291,29.1,40.68709,-73.95092,18.62686,9.83,171.0561,8,10,1383713143,0.105545,-0.0844574,-0.7830353,14.25244,-44.13608,-18.03376,184.6661,197.7273,15,0.1482371,-0.1653988,0.05227279,-0.1808441,0.0734756,0.1585843,0.1432397,-0.1971035,-0.07001308,-0.09389643,-0.01767767,0.02185117,5,0
2013-11-05 23:45:43.809,292,29.2,40.68709,-73.95092,18.62686,9.83,171.0561,8,10,1383713143,-0.0160675,-0.3079529,-1.188919,15.40494,-45.42395,-18.88049,185.2187,198.28,15,0.1549398,-0.1373227,0.003677559,-0.1675345,0.06917239,0.1806147,0.3420341,-0.2118375,0.01020118,-0.1071165,-0.002341975,-0.4022403,5,0
2013-11-05 23:45:43.909,293,29.3,40.68709,-73.95092,18.62686,9.83,171.0561,8,10,1383713143,0.02861023,-0.1934509,-0.8811188,17.04638,-45.31949,-19.65949,187.3314,200.3926,15,-0.03874527,0.04820774,-0.002518285,-0.1687199,0.05832127,0.1816842,-0.004780736,-0.1852273,0.002525563,0.009565691,-0.08142915,0.05385952,5,0
2013-11-05 23:45:44.039,294,29.4,40.68709,-73.95092,18.62686,9.83,171.0561,8,10,1383713143,0.1946564,-0.1040649,-0.8683319,16.24313,-44.10129,-17.79668,186.8114,199.8726,15,-0.2345731,0.3356678,-0.2937182,-0.1830275,0.07574741,0.167102,-0.2745501,0.2041985,-0.3931921,-0.07990045,0.05164038,0.1031012,5,0
2013-11-05 23:45:44.109,295,29.5,40.68709,-73.95092,18.62686,9.83,171.0561,8,10,1383713143,0.3444366,-0.1963501,-1.099945,16.55745,-44.27536,-18.23696,185.8575,198.9187,15,0.2118134,-0.6518103,0.2637376,-0.1820387,0.1111142,0.143395,0.1690787,-0.6684516,0.1676296,0.2860196,-0.1182348,-0.2529698,5,0
2013-11-05 23:45:44.208,296,29.6,40.68709,-73.95092,18.62686,9.83,171.0561,8,10,1383713143,-0.2253418,0.02850342,-1.134491,15.26526,-43.33557,-18.27084,185.8154,198.8766,15,0.3296112,-0.2432172,-0.09350492,-0.1615849,0.06678244,0.150023,0.1786644,-0.3397551,0.02730059,-0.1888318,0.103654,-0.09766496,5,0
2013-11-05 23:45:44.340,297,29.7,40.68709,-73.95092,18.62686,9.83,171.0561,8,10,1383713143,-0.07090759,0.04232788,-0.7018433,13.6937,-44.55377,-17.42408,185.0741,198.1354,15,0.1478741,-0.2374224,-0.01710868,-0.1657766,0.04174309,0.1725373,0.1614644,-0.2856199,-0.00762793,-0.1219219,0.2453672,0.2438462,5,0
2013-11-05 23:45:44.409,298,29.8,40.68709,-73.95092,18.62686,9.83,171.0561,8,10,1383713143,0.1656189,-0.1953888,-1.360764,13.8334,-43.99686,-17.01764,185.4,198.4612,15,0.5452713,0.9244874,0.1742658,-0.1769528,0.04984807,0.1878693,0.244195,0.548925,0.03539689,0.1219935,0.04740759,0.02476321,5,0
2013-11-05 23:45:44.509,299,29.9,40.68701,-73.9509,19.88858,9.58,171.0561,8,10,1383713144,0.1471252,-0.3525391,-0.9502563,14.14771,-45.35434,-16.78056,184.217,197.2783,15,-0.1832335,0.05721509,0.2067646,-0.1835662,0.07363596,0.228016,0.01124182,-0.3219947,0.04642704,0.009282662,-0.1708663,-0.06796695,5,0
2013-11-05 23:45:44.640,300,30,40.68701,-73.9509,19.88858,9.58,171.0561,8,10,1383713144,-0.0907135,-0.1873779,-1.22464,15.05574,-46.53775,-16.91604,184.9211,197.9824,15,0.01069366,-0.3722838,-0.1144398,-0.1678762,0.07827637,0.2125154,0.04880546,-0.4301408,-0.06273974,-0.2042297,0.07648943,-0.4282454,5,0
2013-11-05 23:45:44.709,301,30.1,40.68701,-73.9509,19.88858,9.58,171.0561,8,10,1383713144,0.2866058,-0.0697937,-0.7758026,15.26529,-46.39853,-16.98379,184.7104,197.7716,15,-0.3142144,0.1807778,0.1819213,-0.1880821,0.09012421,0.1874166,-0.0472066,-0.3313493,-0.08761959,0.2031845,0.07963188,0.02838247,5,0
2013-11-05 23:45:44.808,302,30.2,40.68701,-73.9509,19.88858,9.58,171.0561,8,10,1383713144,0.07084656,-0.1662903,-0.6730804,15.40498,-46.12006,-17.11928,185.46,198.5213,15,-0.1548165,-0.01389398,-0.1038825,-0.1834016,0.07734818,0.1728311,-0.05759647,-0.3934589,-0.1545149,-0.1159301,-0.01990731,0.1479127,5,0
2013-11-05 23:45:44.939,303,30.3,40.68701,-73.9509,19.88858,9.58,171.0561,8,10,1383713144,0.1999054,0.0634613,-0.5979004,15.75423,-45.14548,-17.66117,185.9315,198.9927,15,-0.3705983,0.5033566,0.02814935,-0.1918769,0.07485779,0.1582316,-0.2174814,0.09597134,-0.1108356,0.07382096,0.147242,0.4295661,5,0
2013-11-05 23:45:45.008,304,30.4,40.68701,-73.9509,19.88858,9.58,171.0561,8,10,1383713144,-0.02529907,-0.09425354,-0.8611603,15.47483,-45.772,-17.05151,185.16,198.2212,15,0.2655398,-0.2484796,-0.167871,-0.1997381,0.1024095,0.1818965,0.3408602,-0.3262348,-0.3263226,-0.2712899,0.02147132,-0.04681219,5,0
2013-11-05 23:45:45.109,305,30.5,40.68701,-73.9509,19.88858,9.58,171.0561,8,10,1383713144,0.05079651,-0.009674072,-0.8309021,15.78914,-47.82562,-17.76276,185.8077,198.8689,15,-0.01981818,0.2228259,0.2952098,-0.1889192,0.07113858,0.1928539,-0.1365643,0.06180401,0.3788148,0.07750168,0.2314709,0.3811395,5,0
2013-11-05 23:45:45.240,306,30.6,40.68701,-73.9509,19.88858,9.58,171.0561,8,10,1383713144,0.05755615,-0.2950897,-1.132812,14.77634,-48.41736,-17.66114,184.4924,197.5537,15,0.02608167,0.6357219,0.01028646,-0.184416,0.0737773,0.2089432,0.2332705,-0.0223113,-0.1218439,-0.1212558,-0.002626324,-0.3158686,5,0
2013-11-05 23:45:45.309,307,30.7,40.68701,-73.9509,19.88858,9.58,171.0561,8,10,1383713144,-0.07505798,-0.2623291,-1.264603,13.58893,-47.93005,-16.78056,183.238,196.2992,15,-0.02640285,0.2270419,-0.02302809,-0.1688554,0.07769161,0.2198368,-0.0881363,0.06779515,0.1660617,-0.02290438,-0.05202551,-0.2555112,5,0
2013-11-05 23:45:45.409,308,30.8,40.68701,-73.9509,19.88858,9.58,171.0561,8,10,1383713144,0.2246704,-0.2051239,-1.206223,12.57613,-46.36374,-16.20479,182.5176,195.5788,15,-0.0362126,0.2015829,-0.1509581,-0.1810656,0.09373477,0.203311,-0.1460429,0.3417311,-0.06959537,0.1742451,-0.01521934,-0.1018156,5,0
2013-11-05 23:45:45.539,309,30.9,40.68694,-73.95089,19.17902,9.23,171.0561,8,10,1383713145,0.2052612,-0.1235657,-0.8256073,14.91602,-46.32895,-18.20307,183.7753,196.8365,15,0.09960196,-0.1985999,0.05626594,-0.1866542,0.09955088,0.1979767,0.01858128,-0.1493057,0.02719075,0.1724675,0.07534811,0.1015582,5,0
2013-11-05 23:45:45.609,310,31,40.68694,-73.95089,19.17902,9.23,171.0561,8,10,1383713145,0.01548767,-0.1369781,-0.9176178,15.26526,-45.77209,-18.20307,184.3268,197.3881,15,0.0077743,-0.05936639,-0.01599335,-0.1794071,0.0866532,0.1939213,0.08307879,-0.2522781,-0.03483976,-0.04459363,0.04245491,-0.03905768,5,0
2013-11-05 23:45:45.709,311,31.1,40.68694,-73.95089,19.17902,9.23,171.0561,8,10,1383713145,0.06813049,-0.08963013,-1.08754,15.54465,-44.79745,-18.27082,185.5266,198.5879,15,0.1339256,-0.0151169,0.1960364,-0.1717375,0.06322099,0.1789825,-0.08236371,0.06553272,0.2070694,0.04415362,0.1453746,0.1246376,5,0
2013-11-05 23:45:45.843,312,31.2,40.68694,-73.95089,19.17902,9.23,171.0561,8,10,1383713145,-0.1202393,-0.2683105,-0.8307495,15.40496,-44.10132,-19.8288,186.4314,199.4927,15,-0.2765922,0.2149014,-0.07564123,-0.1618005,0.01996563,0.1918926,-0.1273421,-0.2114993,-0.08401763,-0.1766718,-0.07609813,0.05710248,5,0
2013-11-05 23:45:45.940,313,31.3,40.68694,-73.95089,19.17902,9.23,171.0561,8,10,1383713145,0.07044983,-0.1010895,-1.006393,15.7542,-44.10129,-19.96426,186.6093,199.6705,15,-0.1087539,0.3591491,-0.04681198,-0.1634369,0.02846164,0.1821225,-0.2750355,0.4247943,-0.04085369,-0.04516855,-0.01230301,0.142899,5,0
2013-11-05 23:45:46.009,314,31.4,40.68694,-73.95089,19.17902,9.23,171.0561,8,10,1383713145,0.2464142,-0.3684082,-0.8162079,15.71928,-44.41452,-19.04978,185.8516,198.9128,15,0.07752382,0.1001218,-0.150994,-0.1743001,0.03896073,0.2113757,0.3031362,-0.5097859,-0.2659312,0.01198014,-0.02621773,0.06585315,5,0
2013-11-05 23:45:46.140,315,31.5,40.68694,-73.95089,19.17902,9.23,171.0561,8,10,1383713145,0.3341675,-0.2166748,-0.982254,15.57959,-44.48416,-18.57561,185.5711,198.6323,15,0.34329,-0.3606565,0.2822621,-0.1741613,0.0595946,0.1986219,0.3058704,-0.3090675,0.2530386,0.3671793,-0.07105309,0.03261522,5,0
2013-11-05 23:45:46.208,316,31.6,40.68694,-73.95089,19.17902,9.23,171.0561,8,10,1383713145,-0.005691528,-0.1547699,-0.9124756,16.03361,-44.79739,-19.35461,185.9306,198.9918,15,-0.4179855,0.3179836,0.1768368,-0.1736566,0.04440256,0.2130496,-0.05406326,-0.09978509,0.0384505,0.009182137,0.04457138,0.0130484,5,0
2013-11-05 23:45:46.312,317,31.7,40.68694,-73.95089,19.17902,9.23,171.0561,8,10,1383713145,0.3320465,-0.2909851,-0.8687134,16.41778,-46.01562,-19.38847,185.5685,198.6298,15,-0.022439,-0.4894584,0.08867927,-0.1803601,0.06117938,0.1806424,-0.006801842,-0.5673068,-0.09444508,0.2170753,-0.05068514,-0.168762,5,0
2013-11-05 23:45:46.440,318,31.8,40.68694,-73.95089,19.17902,9.23,171.0561,8,10,1383713145,0.1944122,-0.0166626,-1.071152,14.95098,-43.71838,-20.54002,184.7117,197.773,15,0.1794022,-0.1925753,0.05971979,-0.1812787,0.05617323,0.1544728,-0.3034744,0.4727832,-0.07821854,0.02655607,0.08965021,-0.05068192,5,0
2013-11-05 23:45:46.509,319,31.9,40.68681,-73.95086,16.32416,9.72,171.2598,8,10,1383713146,0.06982422,-0.05531311,-0.978302,14.74143,-43.30072,-19.72715,184.8095,197.8708,15,0.09951434,0.1054862,0.1248964,-0.1703372,0.02559863,0.1573122,-0.02042201,-0.1232499,0.04712033,-0.05562951,-0.0397012,0.02544481,5,0
2013-11-05 23:45:46.609,320,32,40.68681,-73.95086,16.32416,9.72,171.2598,8,10,1383713146,0.06556702,-0.1256409,-0.6895142,14.84621,-42.98743,-19.21912,185.5199,198.5812,15,0.01957024,0.1118749,0.1325911,-0.1690528,-0.001172068,0.1753014,0.2275968,-0.2987035,0.104078,0.08403984,0.01965025,0.2850274,5,0
2013-11-05 23:45:46.740,321,32.1,40.68681,-73.95086,16.32416,9.72,171.2598,8,10,1383713146,-0.07821655,-0.1681366,-1.192886,14.74145,-44.55371,-18.50787,184.8178,197.8791,15,0.2081215,0.4958681,-0.1862612,-0.165157,0.0134752,0.1784244,0.1587205,0.3888606,-0.1167288,-0.09027198,0.01395078,-0.1528514,5,0
2013-11-05 23:45:46.809,322,32.2,40.68681,-73.95086,16.32416,9.72,171.2598,8,10,1383713146,0.1805573,-0.3039703,-0.8223267,14.98592,-45.42389,-18.33852,184.69,197.7512,15,0.1964822,-0.1928997,0.212573,-0.1830551,0.02651278,0.2012247,0.1808295,-0.27484,0.1551149,0.2394213,-0.1432396,0.05420047,5,0
2013-11-05 23:45:46.909,323,32.3,40.68681,-73.95086,16.32416,9.72,171.2598,8,10,1383713146,-0.03887939,-0.3681641,-1.254761,14.74143,-45.94601,-18.10145,184.5907,197.6519,15,0.1748243,-0.4161834,-0.1707656,-0.169794,0.03156805,0.2033673,0.2344024,-0.3744757,-0.1691952,-0.202528,-0.1250427,-0.4805533,5,0
2013-11-05 23:45:47.040,324,32.4,40.68681,-73.95086,16.32416,9.72,171.2598,8,10,1383713146,0.0138092,-0.2172699,-0.9600372,15.05576,-45.21512,-19.01591,185.6251,198.6863,15,-0.212385,0.2940641,-0.02762124,-0.173661,0.0197206,0.1964678,-0.2940904,0.1604405,-0.08221376,-0.09816687,-0.115249,0.02721762,5,0
2013-11-05 23:45:47.109,325,32.5,40.68681,-73.95086,16.32416,9.72,171.2598,8,10,1383713146,0.1130066,-0.2636566,-0.8654022,15.89395,-44.86703,-19.42233,186.4728,199.5341,15,-0.2462447,0.4101364,-0.03286154,-0.1737016,0.01748015,0.1937402,-0.3276591,0.1690787,-0.09083071,-0.03164809,-0.1881763,0.1158914,5,0
2013-11-05 23:45:47.207,326,32.6,40.68681,-73.95086,16.32416,9.72,171.2598,8,10,1383713146,0.06942749,-0.2382812,-0.6437225,15.2304,-44.27536,-19.65943,185.8598,198.9211,15,-0.1283492,0.1012845,-0.03348153,-0.1789118,0.01259753,0.188801,0.02814683,-0.236221,-0.03720304,0.0738083,-0.04789907,0.2757616,5,0
2013-11-05 23:45:47.340,327,32.7,40.68681,-73.95086,16.32416,9.72,171.2598,8,10,1383713146,-0.002807617,-0.2001953,-1.105209,15.23041,-44.41455,-19.38847,185.5421,198.6033,15,0.2133291,0.02668541,-0.003257312,-0.1768406,0.02521923,0.1759816,-0.003415287,0.3696666,0.1188131,0.0786275,0.05231766,-5.661591e-05,5,0
2013-11-05 23:45:47.408,328,32.8,40.68681,-73.95086,16.32416,9.72,171.2598,8,10,1383713146,0.1954498,-0.1300659,-1.01857,14.88118,-44.83224,-19.65942,185.2264,198.2877,15,0.2966716,-0.5338426,0.006994793,-0.1810553,0.03996283,0.195165,0.3603178,-0.3435813,0.0764429,0.1989807,0.1060683,-0.1278913,5,0
2013-11-05 23:45:47.508,329,32.9,40.68681,-73.95086,16.32416,9.72,171.2598,8,10,1383713146,0.1251526,-0.2832184,-1.059113,14.60178,-45.66763,-19.6594,184.7719,197.8332,15,-0.0866827,0.590103,0.179864,-0.1758296,0.01957368,0.1969023,-0.2770474,0.4334243,0.1493128,0.07563913,-0.1781316,0.2312371,5,0
2013-11-05 23:45:47.640,330,33,40.68674,-73.95085,15.56613,9.29,171.2598,8,10,1383713147,-0.1322327,-0.364563,-1.083939,14.56685,-46.74664,-19.82874,184.7023,197.7635,15,0.004088485,-0.1834111,-0.115031,-0.1706678,0.01873417,0.2059913,0.2848101,-0.5898445,-0.05056179,0.01135657,-0.05794411,-0.4286617,5,0
2013-11-05 23:45:47.708,331,33.1,40.68674,-73.95085,15.56613,9.29,171.2598,8,10,1383713147,-0.2241669,-0.2906189,-1.377731,14.60178,-46.92068,-19.52392,184.5177,197.5789,15,0.1168347,-0.09288227,-0.4078256,-0.1828542,0.03752148,0.2043866,-0.1822359,0.666582,-0.2421016,-0.3082925,-0.0786344,-0.3098947,5,0
2013-11-05 23:45:47.808,332,33.2,40.68674,-73.95085,15.56613,9.29,171.2598,8,10,1383713147,0.2615967,-0.1179352,-0.8251038,14.77641,-46.60739,-19.55778,185.0462,198.1075,15,-0.2906958,0.5773451,0.2427173,-0.1989675,0.02247704,0.2026658,-0.5256532,0.2854735,0.09091239,0.2893252,-0.0460027,0.430519,5,0
2013-11-05 23:45:47.940,333,33.3,40.68674,-73.95085,15.56613,9.29,171.2598,8,10,1383713147,-0.0586853,-0.3141632,-1.202515,14.043,-46.50299,-19.38844,184.1427,197.204,15,0.2859255,-0.2633542,0.02852885,-0.1844625,0.03049908,0.2063762,0.3413222,-0.3260927,0.1000587,0.01895034,0.02281594,-0.3383257,5,0
2013-11-05 23:45:48.008,334,33.4,40.68674,-73.95085,15.56613,9.29,171.2598,8,10,1383713147,-0.3441467,-0.243454,-0.9824066,13.90329,-46.01572,-19.25295,185.3784,198.4397,15,0.03764405,-0.02507233,-0.2486687,-0.1812334,-0.01066847,0.2263728,0.003052316,0.0197433,-0.1821716,-0.3937787,-0.01066308,-0.05605561,5,0
2013-11-05 23:45:48.109,335,33.5,40.68674,-73.95085,15.56613,9.29,171.2598,8,10,1383713147,0.00630188,-0.215744,-1.105453,14.21761,-45.70245,-18.81266,185.8592,198.9205,15,0.02149544,0.8123267,-0.1767433,-0.1840745,0.003973212,0.2147642,-0.2259911,0.7071177,0.1084737,0.08089591,0.1038947,0.1851641,5,0
2013-11-05 23:45:48.240,336,33.6,40.68674,-73.95085,15.56613,9.29,171.2598,8,10,1383713147,0.2398682,-0.4504089,-1.120804,16.62737,-46.36374,-18.71104,186.2196,199.2809,15,-0.09372889,0.7442899,-0.2395535,-0.2024146,0.04704224,0.2194506,-0.04336692,0.5760698,-0.2609017,0.1107801,-0.170246,-0.188652,5,0
2013-11-05 23:45:48.308,337,33.7,40.68674,-73.95085,15.56613,9.29,171.2598,8,10,1383713147,-0.1598511,-0.228302,-1.30011,16.2432,-46.12009,-18.88038,185.931,198.9923,15,0.1794643,0.1316638,-0.005975334,-0.1963956,0.0530391,0.2223262,-0.02249173,0.2861676,0.173829,-0.05929302,-0.03169807,-0.07678098,5,0
2013-11-05 23:45:48.408,338,33.8,40.68674,-73.95085,15.56613,9.29,171.2598,8,10,1383713147,-0.01481628,-0.325943,-0.7502899,15.78918,-46.29416,-18.84652,185.7561,198.8173,15,-0.1814563,-0.06341519,0.06294514,-0.2002967,0.02553795,0.2267238,-0.1487422,-0.3301273,0.07678067,-0.01214059,-0.01343387,0.2259977,5,0
2013-11-05 23:45:48.540,339,33.9,40.68666,-73.95083,14.93298,9.31,171.2598,8,10,1383713148,-0.04272461,-0.08004761,-1.012405,16.62738,-45.45877,-19.32069,186.8804,199.9417,15,-0.1042976,0.3878071,-0.002165949,-0.1937644,0.02773851,0.2077002,-0.2899528,0.3516327,0.08869769,-0.08156697,0.07145968,0.1236849,5,0
2013-11-05 23:45:48.608,340,34,40.68666,-73.95083,14.93298,9.31,171.2598,8,10,1383713148,0.3451996,-0.1533508,-0.8622742,16.62738,-45.38916,-18.982,186.7647,199.826,15,-0.124404,0.4273883,0.003985953,-0.2070285,0.04624482,0.2072968,-0.2552441,0.2360991,-0.2143596,0.1554144,-0.04165175,0.1392573,5,0
2013-11-05 23:45:48.708,341,34.1,40.68666,-73.95083,14.93298,9.31,171.2598,8,10,1383713148,0.1532288,-0.2662354,-0.536499,16.802,-45.70242,-20.09968,186.7707,199.832,15,-0.1741609,-0.03372893,0.07525694,-0.2106896,0.03998326,0.2215837,0.2384455,-0.4330342,-0.05461087,0.09436651,-0.01307428,0.2791838,5,0
2013-11-05 23:45:48.840,342,34.2,40.68666,-73.95083,14.93298,9.31,171.2598,8,10,1383713148,-0.05966187,-0.2164154,-1.298843,16.62738,-45.6676,-19.11747,186.8364,199.8977,15,0.3423768,-0.3987674,-0.09179837,-0.1946064,0.05528746,0.2136844,0.287599,-0.05961884,0.06336253,-0.02487346,-0.003300661,-0.3075774,5,0
2013-11-05 23:45:48.909,343,34.3,40.68666,-73.95083,14.93298,9.31,171.2598,8,10,1383713148,0.09095764,-0.2691345,-0.8087006,16.45276,-46.46817,-19.08361,186.519,199.5802,15,-0.3318482,0.5951944,0.1209632,-0.1915095,0.02573867,0.2226267,-0.2031656,-0.09528281,0.1122837,0.03900148,0.008252593,0.1088174,5,0
2013-11-05 23:45:49.008,344,34.4,40.68666,-73.95083,14.93298,9.31,171.2598,8,10,1383713148,0.1652527,-0.2897339,-0.6616364,15.40504,-46.32895,-19.89648,185.813,198.8742,15,-0.1081329,-0.1127234,0.09892099,-0.1967961,0.01210025,0.233737,0.3283301,-0.7853277,-0.1097106,0.05596284,-0.04878101,0.1945229,5,0
2013-11-05 23:45:49.140,345,34.5,40.68666,-73.95083,14.93298,9.31,171.2598,8,10,1383713148,-0.05126953,-0.118515,-1.550827,15.75429,-46.18973,-19.35456,185.8529,198.9142,15,0.2283756,0.4391483,0.03016509,-0.188155,0.02853489,0.2188019,-0.1209744,0.9504274,0.1670538,0.01990922,0.02728667,0.02910555,5,0
2013-11-05 23:45:49.208,346,34.6,40.68666,-73.95083,14.93298,9.31,171.2598,8,10,1383713148,0.07830811,-0.2312775,-0.9939117,15.92891,-46.0853,-19.59165,187.1109,200.1722,15,0.07600955,0.8417211,0.2033891,-0.1906056,0.01115297,0.2324958,-0.5338915,0.79787,0.3068619,0.2245447,-0.05249102,0.4271812,5,0
2013-11-05 23:45:49.308,347,34.7,40.68666,-73.95083,14.93298,9.31,171.2598,8,10,1383713148,-0.02891541,-0.1824036,-0.9009857,15.85906,-44.83224,-20.2013,187.2903,200.3516,15,-0.02523532,-0.05228984,-0.08055396,-0.1926617,0.01569152,0.2421983,0.05781112,-0.09614949,-0.1409136,-0.1324051,0.02046169,-0.07856179,5,0
2013-11-05 23:45:49.441,348,34.8,40.68666,-73.95083,14.93298,9.31,171.2598,8,10,1383713148,-0.01194763,-0.236557,-1.265823,15.894,-45.28473,-19.96423,186.9853,200.0465,15,0.1521403,0.3412572,-0.0562931,-0.1921577,0.02740855,0.2346525,-0.05013604,0.4533433,0.05158176,0.03705136,0.05629651,-0.02332979,5,0
2013-11-05 23:45:49.541,349,34.9,40.68656,-73.95081,15.40625,9.89,171.2598,8,10,1383713149,0.1336365,-0.0736084,-0.8618011,16.52264,-44.72784,-19.62553,187.9634,201.0247,15,-0.1616214,0.5834216,0.07197246,-0.2043744,0.03834278,0.2371384,-0.2015866,0.31883,0.005264199,0.0708937,0.03298724,0.1899125,5,0
2013-11-05 23:45:49.608,350,35,40.68656,-73.95081,15.40625,9.89,171.2598,8,10,1383713149,0.0486145,-0.2410126,-0.8943024,17.22112,-44.44937,-20.43838,189.314,202.3753,15,-0.5797704,1.555494,0.02665212,-0.2091454,0.0499362,0.2159471,-0.7521929,0.7549406,0.07273047,0.03792907,-0.1584386,0.3281717,5,0
2013-11-05 23:45:49.740,351,35.1,40.68656,-73.95081,15.40625,9.89,171.2598,8,10,1383713149,0.3198547,-0.1322784,-0.5971527,16.76712,-43.78806,-19.18522,189.1143,202.1755,15,0.2745479,-0.6664302,0.1168925,-0.2194835,0.0695008,0.2133989,0.587117,-1.148163,-0.213806,0.1680618,0.2646546,0.03349001,5,0
2013-11-05 23:45:49.809,352,35.2,40.68656,-73.95081,15.40625,9.89,171.2598,8,10,1383713149,0.325119,-0.1541901,-0.8263245,15.40507,-42.91788,-17.52563,186.6979,199.7592,15,0.3820699,-0.3294612,0.150263,-0.2137894,0.07593111,0.2195251,0.4450064,-0.6637028,0.03623382,0.187849,0.157494,-0.07383885,5,0
2013-11-05 23:45:49.908,353,35.3,40.68656,-73.95081,15.40625,9.89,171.2598,8,10,1383713149,0.1655121,-0.06297302,-0.8160858,15.54477,-43.26596,-17.45789,187.8434,200.9046,15,-0.2657228,1.326424,0.2190748,-0.2100357,0.04586357,0.2352966,-0.4419779,0.4295217,0.05915473,0.02250872,0.09999851,0.4636865,5,0
2013-11-05 23:45:50.040,354,35.4,40.68656,-73.95081,15.40625,9.89,171.2598,8,10,1383713149,0.4275208,-0.3206635,-1.036987,15.26537,-43.82288,-17.1192,186.7818,199.843,15,0.04821467,0.0908833,0.1412692,-0.2143014,0.07734317,0.2380283,0.3110632,-0.6172352,-0.2804894,0.07652378,-0.06131694,-0.3637268,5,0
2013-11-05 23:45:50.108,355,35.5,40.68656,-73.95081,15.40625,9.89,171.2598,8,10,1383713149,-0.2234192,-0.2606964,-1.392242,15.23045,-44.0665,-17.62724,186.8698,199.931,15,0.1345594,-0.4252536,-0.2538978,-0.1972612,0.05713762,0.2426253,0.03263983,-0.2301867,0.1331163,-0.04366939,-0.0100228,-0.347707,5,0
2013-11-05 23:45:50.207,356,35.6,40.68656,-73.95081,15.40625,9.89,171.2598,8,10,1383713149,-0.1719208,-0.167511,-0.9028625,15.57969,-43.6488,-18.16914,188.2593,201.3205,15,-0.3065692,0.1631988,-0.06294594,-0.2132025,0.03128283,0.2314392,-0.3859802,0.1242266,0.01272509,-0.05523932,0.03466123,0.2363346,5,0
2013-11-05 23:45:50.340,357,35.7,40.68656,-73.95081,15.40625,9.89,171.2598,8,10,1383713149,0.08137512,-0.02420044,-0.9449005,15.96386,-42.08252,-18.94811,188.8815,201.9427,15,-0.2726781,0.4337536,-0.01544926,-0.2201224,0.04742587,0.2016665,-0.358761,0.3524055,-0.00799254,0.00581403,0.1427156,0.08211764,5,0
2013-11-05 23:45:50.411,358,35.8,40.68656,-73.95081,15.40625,9.89,171.2598,8,10,1383713149,0.1057739,-0.04267883,-0.9292603,16.24326,-41.31677,-19.15133,189.4175,202.4787,15,0.06240292,-0.2548597,-0.07147631,-0.2211727,0.05239473,0.1948797,0.009825723,-0.2424663,-0.0644311,0.02441098,0.1695549,-0.03396248,5,0
2013-11-05 23:45:50.508,359,35.9,40.68642,-73.95078,15.43283,11.37,171.2598,8,10,1383713150,-0.07914734,-0.1067047,-1.018448,15.30031,-40.72507,-20.0658,188.7281,201.7893,15,0.2018122,0.2364836,-0.01508894,-0.2100974,0.04354757,0.2070679,0.2018161,0.1766409,0.1051479,0.03672661,0.1527807,0.06239641,5,0
2013-11-05 23:45:50.640,360,36,40.68642,-73.95078,15.43283,11.37,171.2598,8,10,1383713150,-0.008422852,-0.2715607,-1.11557,15.40508,-41.59525,-17.72884,187.9172,200.9784,15,0.06443013,0.4999933,-0.1671664,-0.2099524,0.04591181,0.2071145,0.1130632,0.2654294,-0.1335381,-0.00290737,-0.01843836,-0.09469903,5,0
2013-11-05 23:45:50.708,361,36.1,40.68642,-73.95078,15.43283,11.37,171.2598,8,10,1383713150,0.2019806,-0.3133698,-1.065384,15.99879,-42.32614,-17.28854,187.9057,200.9669,15,0.1910783,-0.05969609,-0.006635266,-0.2219957,0.07626409,0.2237408,0.2055939,-0.1151835,0.03526084,0.253895,-0.02230763,-0.01651426,5,0
2013-11-05 23:45:50.808,362,36.2,40.68642,-73.95078,15.43283,11.37,171.2598,8,10,1383713150,-0.01654053,-0.2471008,-1.143112,16.4528,-42.70905,-17.05145,188.0596,201.1209,15,0.2186996,-0.5224329,-0.1705619,-0.2184722,0.07625545,0.2273078,0.06091704,0.02812192,0.004181623,-0.01060803,-0.01092692,-0.2711694,5,0
2013-11-05 23:45:50.940,363,36.3,40.68642,-73.95078,15.43283,11.37,171.2598,8,10,1383713150,0.01455688,-0.1482391,-0.9164734,16.73219,-41.73447,-17.79658,188.7872,201.8484,15,-0.5355425,0.7457266,0.2404707,-0.2193713,0.04983496,0.2182285,-0.6047525,0.471538,0.2187008,0.04623102,0.008553672,0.3142428,5,0
2013-11-05 23:45:51.041,364,36.4,40.68642,-73.95078,15.43283,11.37,171.2598,8,10,1383713150,-0.1404114,-0.09303284,-1.474976,16.48772,-41.21237,-18.91427,188.9724,202.0337,15,-0.09619871,-0.06897774,-0.2083162,-0.2117312,0.06882042,0.2022188,-0.3745303,0.6173988,0.1304688,-0.1801426,0.1059643,-0.3825894,5,0
2013-11-05 23:45:51.124,365,36.5,40.68642,-73.95078,15.43283,11.37,171.2598,8,10,1383713150,0.03379822,-0.215271,-1.148209,16.5925,-40.27258,-18.40624,189.4872,202.5484,15,-0.04286038,-0.6658848,-0.3022741,-0.2129701,0.07324469,0.1984319,-0.1173855,-0.1727476,-0.2022005,-0.2570307,0.1067697,-0.6039472,5,0
2013-11-05 23:45:51.224,366,36.6,40.68642,-73.95078,15.43283,11.37,171.2598,8,10,1383713150,0.183609,-0.2461395,-0.8587952,16.94174,-40.41183,-18.33849,189.5197,202.5809,15,-0.4927916,0.2840996,0.06157415,-0.2236007,0.04866078,0.192794,-0.2360545,-0.4436701,-0.138784,0.04178293,-0.05954255,-0.03407808,5,0
2013-11-05 23:45:51.341,367,36.7,40.68642,-73.95078,15.43283,11.37,171.2598,8,10,1383713150,0.0728302,-0.03746033,-0.938324,16.55757,-41.21237,-18.03367,187.3513,200.4126,15,-0.2252968,0.2166649,0.02736957,-0.2219384,0.05074162,0.1783313,-0.5282955,0.3829139,0.08572603,0.1317099,-0.03127636,0.1874948,5,0
2013-11-05 23:45:51.426,368,36.8,40.68634,-73.95077,15.34158,9.48,171.2598,8,10,1383713151,0.06893921,0.005935669,-0.9345551,15.47493,-41.7345,-17.59338,186.2591,199.3203,15,0.02816719,-0.3013234,-0.0115448,-0.2198077,0.05303326,0.1690322,-0.1019856,-0.1900853,-0.005775862,0.02057727,0.1307681,0.04603817,5,0
2013-11-05 23:45:51.540,369,36.9,40.68634,-73.95077,15.34158,9.48,171.2598,8,10,1383713151,-0.01242065,-0.09599304,-0.6811523,15.68448,-42.43063,-17.72883,185.8982,198.9595,15,0.1576871,-0.3766733,0.02433517,-0.2193052,0.03138644,0.1721627,0.1266302,-0.5581683,0.03446471,0.03396301,0.1475861,0.2555443,5,0
2013-11-05 23:45:51.640,370,37,40.68634,-73.95077,15.34158,9.48,171.2598,8,10,1383713151,-0.1453705,-0.0282135,-0.6407928,15.44,-41.49084,-17.35629,186.362,199.4232,15,-0.2967329,0.6009713,-0.1302837,-0.2192817,0.0233093,0.1712253,-0.2695526,0.2851912,-0.05774836,-0.1245441,0.06377669,0.353563,5,0
2013-11-05 23:45:51.725,371,37.1,40.68634,-73.95077,15.34158,9.48,171.2598,8,10,1383713151,-0.02165222,0.0916748,-0.8572693,15.09076,-41.69968,-17.08534,186.1181,199.1793,15,-0.02538339,0.525345,-0.2900318,-0.222003,0.03471825,0.1648585,-0.2527371,0.5881259,-0.1694246,-0.1796111,0.1358993,0.3450543,5,0
2013-11-05 23:45:51.825,372,37.2,40.68634,-73.95077,15.34158,9.48,171.2598,8,10,1383713151,0.234375,0.1263428,-0.7722321,13.93829,-42.08255,-16.64503,184.9579,198.0191,15,0.1277891,0.1281665,-0.1897838,-0.2340095,0.05200234,0.1626655,0.08531037,0.08171684,-0.303127,0.01477782,0.2603988,0.1528541,5,0
2013-11-05 23:45:51.941,373,37.3,40.68634,-73.95077,15.34158,9.48,171.2598,8,10,1383713151,0.2750244,0.06581116,-0.9046478,14.11291,-43.50964,-17.22079,184.0156,197.0769,15,0.2260283,0.4780113,0.1257688,-0.2365456,0.05597173,0.1664991,0.1606013,0.2592767,0.09013286,0.2916329,0.3067832,0.1761245,5,0
2013-11-05 23:45:52.025,374,37.4,40.68634,-73.95077,15.34158,9.48,171.2598,8,10,1383713151,0.133255,-0.01142883,-1.016022,13.65891,-43.47482,-16.37406,183.8311,196.8923,15,0.3737233,0.4835909,0.0805236,-0.2341477,0.06355422,0.1713841,0.2673004,0.4048897,0.1191538,0.2124434,0.2363575,0.07871252,5,0
2013-11-05 23:45:52.141,375,37.5,40.68634,-73.95077,15.34158,9.48,171.2598,8,10,1383713151,0.1291046,-0.1397095,-1.13797,12.64611,-42.04773,-16.06923,182.8026,195.8638,15,0.211369,0.6512007,0.1811959,-0.2318244,0.07570628,0.1822166,0.32866,0.3996988,0.09908342,0.02472401,0.1563076,-0.0819793,5,0
2013-11-05 23:45:52.208,376,37.6,40.68634,-73.95077,15.34158,9.48,171.2598,8,10,1383713151,0.1803131,-0.2573395,-1.211609,13.83353,-42.535,-17.49174,184.2363,197.2976,15,0.1690684,0.3163612,0.1152874,-0.2267818,0.09114368,0.1895729,0.1575145,0.5353035,0.211076,0.03971768,0.04872999,-0.1599615,5,0
2013-11-05 23:45:52.325,377,37.7,40.68634,-73.95077,15.34158,9.48,171.2598,8,10,1383713151,0.1935883,-0.3680115,-1.113342,13.83351,-41.69962,-17.15303,184.4429,197.5042,15,0.3789644,-0.4920651,0.004108991,-0.2232279,0.09455219,0.1977462,0.2977626,-0.420548,-0.01004103,0.09090021,-0.1616028,-0.2305329,5,0
2013-11-05 23:45:52.441,378,37.8,40.68627,-73.95075,15.16525,8.54,171.2598,8,10,1383713152,0.06808472,-0.1707916,-0.8425751,13.10011,-41.66476,-17.32236,182.607,195.6683,15,0.0732127,-0.1429508,0.06362905,-0.2229849,0.07689208,0.2072549,0.1872631,-0.4556618,0.0625298,0.05638886,-0.02777666,-0.0180512,5,0
2013-11-05 23:45:52.540,379,37.9,40.68627,-73.95075,15.16525,8.54,171.2598,8,10,1383713152,0.05462646,-0.01963806,-0.8884735,13.65889,-43.68356,-17.99975,182.2168,195.278,15,-0.2107391,0.6767769,-0.01892229,-0.2209148,0.07522051,0.2048564,-0.2867592,0.2870377,0.03429333,-0.008545276,0.06275578,0.1581759,5,0
2013-11-05 23:45:52.625,380,38,40.68627,-73.95075,15.16525,8.54,171.2598,8,10,1383713152,0.1035309,-0.008926392,-1.410858,14.35738,-44.5885,-18.8126,183.3129,196.3742,15,0.06662484,0.4150864,-0.123388,-0.2203197,0.08564703,0.1984126,-0.2319241,0.5730101,-0.01280629,-0.02923761,0.1774752,0.08831365,5,0
2013-11-05 23:45:52.724,381,38.1,40.68627,-73.95075,15.16525,8.54,171.2598,8,10,1383713152,0.1943359,-0.1174774,-1.246078,13.58904,-45.0062,-17.3901,182.7425,195.8037,15,0.1191317,-0.1906903,-0.2546088,-0.2269901,0.09470868,0.2001799,0.1980927,-0.2936279,-0.2798956,0.02524119,0.1780021,-0.444985,5,0
2013-11-05 23:45:52.840,382,38.2,40.68627,-73.95075,15.16525,8.54,171.2598,8,10,1383713152,0.3809814,-0.2161713,-1.162537,14.21767,-45.70236,-17.3901,182.4606,195.5218,15,-0.1273995,0.5411184,0.02973286,-0.2328995,0.09224782,0.1992498,-0.1795218,0.1911872,-0.05897601,0.2250283,0.03345951,-0.1019553,5,0
2013-11-05 23:45:52.924,383,38.3,40.68627,-73.95075,15.16525,8.54,171.2598,8,10,1383713152,0.4024048,-0.1897583,-1.266266,13.34458,-46.08521,-16.54337,180.8133,193.8746,15,0.3164672,-0.1064543,0.0602439,-0.2316284,0.1034857,0.1951343,0.06518105,0.2258205,0.03584873,0.2792746,-0.02921573,-0.2691303,5,0
2013-11-05 23:45:53.040,384,38.4,40.68627,-73.95075,15.16525,8.54,171.2598,8,10,1383713152,0.243103,-0.1812744,-0.7688446,12.5064,-45.59793,-15.45956,180.8129,193.8741,15,0.1540279,-0.4623019,0.1489391,-0.2296138,0.09098635,0.2056288,0.3552596,-0.6185147,0.1333779,0.3116881,0.0639697,-0.1734929,5,0
2013-11-05 23:45:53.141,385,38.5,40.68627,-73.95075,15.16525,8.54,171.2598,8,10,1383713152,0.1401978,-0.1303558,-0.8366241,12.57625,-45.24985,-14.9854,181.0921,194.1534,15,-0.1494233,0.3352148,0.2604532,-0.2217201,0.07243121,0.2077523,-0.2851423,0.09468888,0.2686231,0.1224866,0.02613102,0.2534735,5,0
2013-11-05 23:45:53.225,386,38.6,40.68627,-73.95075,15.16525,8.54,171.2598,8,10,1383713152,0.03413391,-0.1284332,-1.309265,12.68102,-44.79739,-14.95153,181.143,194.2043,15,0.2482498,-0.1452776,0.1463657,-0.2159555,0.07541914,0.2058732,0.05319853,0.1468604,0.2375327,0.06644122,0.07406618,0.1394761,5,0
2013-11-05 23:45:53.340,387,38.7,40.68627,-73.95075,15.16525,8.54,171.2598,8,10,1383713152,-0.08755493,-0.05723572,-1.046417,12.85563,-43.43994,-15.66278,181.5137,194.5749,15,0.06567781,-0.2205846,0.08255213,-0.210175,0.06428942,0.2142479,0.1369197,-0.3948794,0.09232941,-0.09607096,0.1376004,-0.1700389,5,0
2013-11-05 23:45:53.442,388,38.8,40.68621,-73.95074,16.43039,8.28,171.2598,8,10,1383713153,-0.2442017,-0.1116791,-1.157471,13.2398,-42.29129,-16.71273,181.533,194.5943,15,-0.1922941,0.3117211,-0.1595164,-0.207334,0.05275452,0.2142652,-0.1695425,-0.001203425,-0.02229813,-0.221263,0.1400281,-0.1274064,5,0
2013-11-05 23:45:53.525,389,38.9,40.68621,-73.95074,16.43039,8.28,171.2598,8,10,1383713153,-0.09742737,-0.08724976,-1.173264,12.08731,-42.60455,-17.42399,180.3989,193.4602,15,-0.04571582,-0.03787228,-0.1513943,-0.2106036,0.05778119,0.2099107,-0.1655146,0.237102,-0.2095557,-0.3006831,0.09669352,-0.1810534,5,0
2013-11-05 23:45:53.640,390,39,40.68621,-73.95074,16.43039,8.28,171.2598,8,10,1383713153,0.164032,-0.02000427,-0.8894196,10.93481,-42.70898,-17.1869,179.0246,192.0858,15,-0.1611806,0.1385704,-0.00366158,-0.2162327,0.05301695,0.2073985,0.01245501,-0.319093,-0.06536153,0.09400227,0.1981786,-0.01070482,5,0
2013-11-05 23:45:53.741,391,39.1,40.68621,-73.95074,16.43039,8.28,171.2598,8,10,1383713153,0.1087341,-0.02688599,-1.01088,11.00465,-41.66483,-16.71272,180.642,193.7032,15,-0.05870113,0.4144427,-0.07077164,-0.2166562,0.05588855,0.2005545,-0.192454,0.3283169,-0.04069725,0.05931962,0.1657807,0.1627066,5,0
